Created as New Dataset,Monday, April 03 2023
cm-1,A
4000.00,0.0046
3999.00,0.0046
3998.00,0.0046
3997.00,0.0046
3996.00,0.0046
3995.00,0.0046
3994.00,0.0046
3993.00,0.0047
3992.00,0.0047
3991.00,0.0047
3990.00,0.0047
3989.00,0.0047
3988.00,0.0047
3987.00,0.0047
3986.00,0.0046
3985.00,0.0046
3984.00,0.0046
3983.00,0.0046
3982.00,0.0046
3981.00,0.0046
3980.00,0.0046
3979.00,0.0047
3978.00,0.0047
3977.00,0.0047
3976.00,0.0047
3975.00,0.0046
3974.00,0.0046
3973.00,0.0046
3972.00,0.0046
3971.00,0.0046
3970.00,0.0047
3969.00,0.0047
3968.00,0.0047
3967.00,0.0047
3966.00,0.0047
3965.00,0.0047
3964.00,0.0047
3963.00,0.0047
3962.00,0.0047
3961.00,0.0047
3960.00,0.0047
3959.00,0.0047
3958.00,0.0047
3957.00,0.0047
3956.00,0.0046
3955.00,0.0046
3954.00,0.0046
3953.00,0.0046
3952.00,0.0047
3951.00,0.0047
3950.00,0.0048
3949.00,0.0048
3948.00,0.0048
3947.00,0.0048
3946.00,0.0048
3945.00,0.0048
3944.00,0.0047
3943.00,0.0046
3942.00,0.0046
3941.00,0.0046
3940.00,0.0047
3939.00,0.0047
3938.00,0.0048
3937.00,0.0048
3936.00,0.0049
3935.00,0.0050
3934.00,0.0050
3933.00,0.0050
3932.00,0.0049
3931.00,0.0048
3930.00,0.0048
3929.00,0.0047
3928.00,0.0047
3927.00,0.0046
3926.00,0.0046
3925.00,0.0046
3924.00,0.0046
3923.00,0.0047
3922.00,0.0048
3921.00,0.0048
3920.00,0.0049
3919.00,0.0050
3918.00,0.0050
3917.00,0.0049
3916.00,0.0048
3915.00,0.0048
3914.00,0.0047
3913.00,0.0047
3912.00,0.0047
3911.00,0.0047
3910.00,0.0047
3909.00,0.0047
3908.00,0.0048
3907.00,0.0049
3906.00,0.0050
3905.00,0.0051
3904.00,0.0052
3903.00,0.0053
3902.00,0.0053
3901.00,0.0053
3900.00,0.0052
3899.00,0.0051
3898.00,0.0050
3897.00,0.0050
3896.00,0.0051
3895.00,0.0051
3894.00,0.0050
3893.00,0.0050
3892.00,0.0050
3891.00,0.0049
3890.00,0.0049
3889.00,0.0050
3888.00,0.0051
3887.00,0.0052
3886.00,0.0051
3885.00,0.0050
3884.00,0.0050
3883.00,0.0050
3882.00,0.0050
3881.00,0.0049
3880.00,0.0049
3879.00,0.0049
3878.00,0.0049
3877.00,0.0050
3876.00,0.0049
3875.00,0.0048
3874.00,0.0048
3873.00,0.0049
3872.00,0.0051
3871.00,0.0052
3870.00,0.0052
3869.00,0.0051
3868.00,0.0051
3867.00,0.0053
3866.00,0.0054
3865.00,0.0053
3864.00,0.0051
3863.00,0.0051
3862.00,0.0052
3861.00,0.0052
3860.00,0.0052
3859.00,0.0052
3858.00,0.0051
3857.00,0.0051
3856.00,0.0052
3855.00,0.0054
3854.00,0.0054
3853.00,0.0052
3852.00,0.0051
3851.00,0.0051
3850.00,0.0052
3849.00,0.0052
3848.00,0.0052
3847.00,0.0052
3846.00,0.0051
3845.00,0.0051
3844.00,0.0051
3843.00,0.0052
3842.00,0.0052
3841.00,0.0053
3840.00,0.0053
3839.00,0.0052
3838.00,0.0052
3837.00,0.0051
3836.00,0.0051
3835.00,0.0051
3834.00,0.0051
3833.00,0.0052
3832.00,0.0052
3831.00,0.0053
3830.00,0.0053
3829.00,0.0052
3828.00,0.0052
3827.00,0.0051
3826.00,0.0051
3825.00,0.0051
3824.00,0.0053
3823.00,0.0055
3822.00,0.0055
3821.00,0.0054
3820.00,0.0053
3819.00,0.0053
3818.00,0.0054
3817.00,0.0053
3816.00,0.0051
3815.00,0.0050
3814.00,0.0050
3813.00,0.0051
3812.00,0.0051
3811.00,0.0051
3810.00,0.0050
3809.00,0.0051
3808.00,0.0053
3807.00,0.0053
3806.00,0.0053
3805.00,0.0053
3804.00,0.0053
3803.00,0.0053
3802.00,0.0052
3801.00,0.0051
3800.00,0.0050
3799.00,0.0051
3798.00,0.0051
3797.00,0.0051
3796.00,0.0051
3795.00,0.0050
3794.00,0.0050
3793.00,0.0050
3792.00,0.0050
3791.00,0.0050
3790.00,0.0050
3789.00,0.0050
3788.00,0.0051
3787.00,0.0051
3786.00,0.0051
3785.00,0.0050
3784.00,0.0050
3783.00,0.0050
3782.00,0.0050
3781.00,0.0050
3780.00,0.0050
3779.00,0.0049
3778.00,0.0049
3777.00,0.0050
3776.00,0.0050
3775.00,0.0051
3774.00,0.0050
3773.00,0.0051
3772.00,0.0052
3771.00,0.0053
3770.00,0.0053
3769.00,0.0053
3768.00,0.0053
3767.00,0.0054
3766.00,0.0054
3765.00,0.0054
3764.00,0.0053
3763.00,0.0054
3762.00,0.0054
3761.00,0.0054
3760.00,0.0053
3759.00,0.0053
3758.00,0.0054
3757.00,0.0054
3756.00,0.0055
3755.00,0.0056
3754.00,0.0058
3753.00,0.0060
3752.00,0.0062
3751.00,0.0064
3750.00,0.0064
3749.00,0.0063
3748.00,0.0062
3747.00,0.0060
3746.00,0.0060
3745.00,0.0059
3744.00,0.0058
3743.00,0.0057
3742.00,0.0057
3741.00,0.0059
3740.00,0.0060
3739.00,0.0060
3738.00,0.0060
3737.00,0.0061
3736.00,0.0060
3735.00,0.0060
3734.00,0.0060
3733.00,0.0060
3732.00,0.0060
3731.00,0.0058
3730.00,0.0058
3729.00,0.0058
3728.00,0.0059
3727.00,0.0058
3726.00,0.0057
3725.00,0.0056
3724.00,0.0056
3723.00,0.0055
3722.00,0.0055
3721.00,0.0054
3720.00,0.0054
3719.00,0.0054
3718.00,0.0054
3717.00,0.0055
3716.00,0.0055
3715.00,0.0055
3714.00,0.0056
3713.00,0.0056
3712.00,0.0056
3711.00,0.0055
3710.00,0.0055
3709.00,0.0055
3708.00,0.0055
3707.00,0.0055
3706.00,0.0054
3705.00,0.0053
3704.00,0.0052
3703.00,0.0051
3702.00,0.0051
3701.00,0.0051
3700.00,0.0052
3699.00,0.0053
3698.00,0.0054
3697.00,0.0054
3696.00,0.0053
3695.00,0.0053
3694.00,0.0052
3693.00,0.0052
3692.00,0.0052
3691.00,0.0052
3690.00,0.0053
3689.00,0.0053
3688.00,0.0054
3687.00,0.0054
3686.00,0.0054
3685.00,0.0055
3684.00,0.0055
3683.00,0.0055
3682.00,0.0055
3681.00,0.0055
3680.00,0.0054
3679.00,0.0054
3678.00,0.0054
3677.00,0.0055
3676.00,0.0056
3675.00,0.0056
3674.00,0.0057
3673.00,0.0058
3672.00,0.0060
3671.00,0.0059
3670.00,0.0056
3669.00,0.0054
3668.00,0.0054
3667.00,0.0054
3666.00,0.0055
3665.00,0.0054
3664.00,0.0054
3663.00,0.0054
3662.00,0.0054
3661.00,0.0054
3660.00,0.0054
3659.00,0.0054
3658.00,0.0055
3657.00,0.0056
3656.00,0.0056
3655.00,0.0056
3654.00,0.0056
3653.00,0.0056
3652.00,0.0057
3651.00,0.0059
3650.00,0.0060
3649.00,0.0060
3648.00,0.0058
3647.00,0.0057
3646.00,0.0057
3645.00,0.0057
3644.00,0.0057
3643.00,0.0056
3642.00,0.0056
3641.00,0.0055
3640.00,0.0055
3639.00,0.0055
3638.00,0.0055
3637.00,0.0056
3636.00,0.0056
3635.00,0.0057
3634.00,0.0058
3633.00,0.0058
3632.00,0.0059
3631.00,0.0061
3630.00,0.0062
3629.00,0.0062
3628.00,0.0061
3627.00,0.0061
3626.00,0.0061
3625.00,0.0061
3624.00,0.0061
3623.00,0.0060
3622.00,0.0060
3621.00,0.0060
3620.00,0.0061
3619.00,0.0061
3618.00,0.0062
3617.00,0.0062
3616.00,0.0062
3615.00,0.0063
3614.00,0.0062
3613.00,0.0063
3612.00,0.0063
3611.00,0.0064
3610.00,0.0065
3609.00,0.0064
3608.00,0.0062
3607.00,0.0061
3606.00,0.0060
3605.00,0.0060
3604.00,0.0060
3603.00,0.0060
3602.00,0.0060
3601.00,0.0060
3600.00,0.0060
3599.00,0.0060
3598.00,0.0060
3597.00,0.0059
3596.00,0.0059
3595.00,0.0059
3594.00,0.0060
3593.00,0.0061
3592.00,0.0062
3591.00,0.0062
3590.00,0.0062
3589.00,0.0062
3588.00,0.0060
3587.00,0.0060
3586.00,0.0059
3585.00,0.0060
3584.00,0.0060
3583.00,0.0060
3582.00,0.0060
3581.00,0.0059
3580.00,0.0059
3579.00,0.0059
3578.00,0.0059
3577.00,0.0059
3576.00,0.0059
3575.00,0.0059
3574.00,0.0059
3573.00,0.0059
3572.00,0.0060
3571.00,0.0060
3570.00,0.0060
3569.00,0.0061
3568.00,0.0062
3567.00,0.0062
3566.00,0.0062
3565.00,0.0062
3564.00,0.0063
3563.00,0.0062
3562.00,0.0062
3561.00,0.0061
3560.00,0.0061
3559.00,0.0061
3558.00,0.0061
3557.00,0.0061
3556.00,0.0061
3555.00,0.0060
3554.00,0.0061
3553.00,0.0061
3552.00,0.0061
3551.00,0.0062
3550.00,0.0063
3549.00,0.0063
3548.00,0.0064
3547.00,0.0064
3546.00,0.0064
3545.00,0.0064
3544.00,0.0063
3543.00,0.0062
3542.00,0.0062
3541.00,0.0061
3540.00,0.0061
3539.00,0.0061
3538.00,0.0061
3537.00,0.0061
3536.00,0.0061
3535.00,0.0061
3534.00,0.0061
3533.00,0.0061
3532.00,0.0061
3531.00,0.0061
3530.00,0.0061
3529.00,0.0061
3528.00,0.0062
3527.00,0.0063
3526.00,0.0064
3525.00,0.0064
3524.00,0.0064
3523.00,0.0063
3522.00,0.0062
3521.00,0.0062
3520.00,0.0061
3519.00,0.0061
3518.00,0.0061
3517.00,0.0062
3516.00,0.0062
3515.00,0.0062
3514.00,0.0062
3513.00,0.0061
3512.00,0.0060
3511.00,0.0060
3510.00,0.0061
3509.00,0.0061
3508.00,0.0062
3507.00,0.0062
3506.00,0.0063
3505.00,0.0063
3504.00,0.0063
3503.00,0.0063
3502.00,0.0064
3501.00,0.0064
3500.00,0.0064
3499.00,0.0064
3498.00,0.0064
3497.00,0.0063
3496.00,0.0063
3495.00,0.0064
3494.00,0.0064
3493.00,0.0064
3492.00,0.0064
3491.00,0.0064
3490.00,0.0064
3489.00,0.0063
3488.00,0.0063
3487.00,0.0063
3486.00,0.0063
3485.00,0.0063
3484.00,0.0064
3483.00,0.0063
3482.00,0.0063
3481.00,0.0063
3480.00,0.0063
3479.00,0.0063
3478.00,0.0063
3477.00,0.0063
3476.00,0.0063
3475.00,0.0063
3474.00,0.0063
3473.00,0.0064
3472.00,0.0063
3471.00,0.0063
3470.00,0.0063
3469.00,0.0063
3468.00,0.0064
3467.00,0.0064
3466.00,0.0064
3465.00,0.0063
3464.00,0.0063
3463.00,0.0063
3462.00,0.0064
3461.00,0.0064
3460.00,0.0063
3459.00,0.0063
3458.00,0.0063
3457.00,0.0062
3456.00,0.0062
3455.00,0.0062
3454.00,0.0062
3453.00,0.0063
3452.00,0.0064
3451.00,0.0064
3450.00,0.0065
3449.00,0.0065
3448.00,0.0065
3447.00,0.0065
3446.00,0.0065
3445.00,0.0065
3444.00,0.0065
3443.00,0.0065
3442.00,0.0065
3441.00,0.0065
3440.00,0.0064
3439.00,0.0064
3438.00,0.0064
3437.00,0.0064
3436.00,0.0065
3435.00,0.0065
3434.00,0.0065
3433.00,0.0065
3432.00,0.0065
3431.00,0.0065
3430.00,0.0065
3429.00,0.0065
3428.00,0.0064
3427.00,0.0064
3426.00,0.0065
3425.00,0.0065
3424.00,0.0065
3423.00,0.0065
3422.00,0.0065
3421.00,0.0065
3420.00,0.0065
3419.00,0.0065
3418.00,0.0065
3417.00,0.0065
3416.00,0.0065
3415.00,0.0065
3414.00,0.0065
3413.00,0.0064
3412.00,0.0064
3411.00,0.0064
3410.00,0.0064
3409.00,0.0064
3408.00,0.0065
3407.00,0.0065
3406.00,0.0065
3405.00,0.0065
3404.00,0.0066
3403.00,0.0066
3402.00,0.0066
3401.00,0.0066
3400.00,0.0065
3399.00,0.0065
3398.00,0.0065
3397.00,0.0065
3396.00,0.0065
3395.00,0.0066
3394.00,0.0066
3393.00,0.0066
3392.00,0.0066
3391.00,0.0066
3390.00,0.0066
3389.00,0.0066
3388.00,0.0066
3387.00,0.0066
3386.00,0.0066
3385.00,0.0066
3384.00,0.0066
3383.00,0.0066
3382.00,0.0066
3381.00,0.0066
3380.00,0.0066
3379.00,0.0066
3378.00,0.0066
3377.00,0.0066
3376.00,0.0066
3375.00,0.0066
3374.00,0.0066
3373.00,0.0066
3372.00,0.0066
3371.00,0.0065
3370.00,0.0065
3369.00,0.0065
3368.00,0.0065
3367.00,0.0065
3366.00,0.0066
3365.00,0.0066
3364.00,0.0067
3363.00,0.0067
3362.00,0.0067
3361.00,0.0067
3360.00,0.0067
3359.00,0.0067
3358.00,0.0066
3357.00,0.0066
3356.00,0.0066
3355.00,0.0066
3354.00,0.0066
3353.00,0.0066
3352.00,0.0067
3351.00,0.0067
3350.00,0.0067
3349.00,0.0067
3348.00,0.0067
3347.00,0.0067
3346.00,0.0067
3345.00,0.0066
3344.00,0.0066
3343.00,0.0066
3342.00,0.0066
3341.00,0.0066
3340.00,0.0067
3339.00,0.0067
3338.00,0.0067
3337.00,0.0067
3336.00,0.0067
3335.00,0.0067
3334.00,0.0067
3333.00,0.0067
3332.00,0.0066
3331.00,0.0066
3330.00,0.0066
3329.00,0.0066
3328.00,0.0067
3327.00,0.0067
3326.00,0.0067
3325.00,0.0067
3324.00,0.0067
3323.00,0.0066
3322.00,0.0066
3321.00,0.0066
3320.00,0.0066
3319.00,0.0067
3318.00,0.0067
3317.00,0.0068
3316.00,0.0067
3315.00,0.0067
3314.00,0.0067
3313.00,0.0067
3312.00,0.0067
3311.00,0.0067
3310.00,0.0068
3309.00,0.0068
3308.00,0.0067
3307.00,0.0067
3306.00,0.0067
3305.00,0.0067
3304.00,0.0067
3303.00,0.0067
3302.00,0.0068
3301.00,0.0068
3300.00,0.0068
3299.00,0.0068
3298.00,0.0068
3297.00,0.0067
3296.00,0.0067
3295.00,0.0067
3294.00,0.0068
3293.00,0.0068
3292.00,0.0068
3291.00,0.0068
3290.00,0.0068
3289.00,0.0068
3288.00,0.0068
3287.00,0.0068
3286.00,0.0068
3285.00,0.0067
3284.00,0.0067
3283.00,0.0067
3282.00,0.0067
3281.00,0.0067
3280.00,0.0067
3279.00,0.0068
3278.00,0.0068
3277.00,0.0068
3276.00,0.0068
3275.00,0.0068
3274.00,0.0068
3273.00,0.0068
3272.00,0.0069
3271.00,0.0068
3270.00,0.0068
3269.00,0.0068
3268.00,0.0068
3267.00,0.0068
3266.00,0.0068
3265.00,0.0067
3264.00,0.0067
3263.00,0.0067
3262.00,0.0067
3261.00,0.0067
3260.00,0.0067
3259.00,0.0067
3258.00,0.0067
3257.00,0.0068
3256.00,0.0068
3255.00,0.0068
3254.00,0.0068
3253.00,0.0068
3252.00,0.0068
3251.00,0.0068
3250.00,0.0067
3249.00,0.0067
3248.00,0.0068
3247.00,0.0068
3246.00,0.0069
3245.00,0.0069
3244.00,0.0068
3243.00,0.0068
3242.00,0.0068
3241.00,0.0068
3240.00,0.0068
3239.00,0.0068
3238.00,0.0068
3237.00,0.0068
3236.00,0.0068
3235.00,0.0068
3234.00,0.0068
3233.00,0.0068
3232.00,0.0068
3231.00,0.0068
3230.00,0.0068
3229.00,0.0068
3228.00,0.0068
3227.00,0.0068
3226.00,0.0068
3225.00,0.0068
3224.00,0.0068
3223.00,0.0068
3222.00,0.0068
3221.00,0.0068
3220.00,0.0068
3219.00,0.0068
3218.00,0.0068
3217.00,0.0068
3216.00,0.0068
3215.00,0.0068
3214.00,0.0068
3213.00,0.0068
3212.00,0.0068
3211.00,0.0067
3210.00,0.0067
3209.00,0.0067
3208.00,0.0067
3207.00,0.0067
3206.00,0.0067
3205.00,0.0067
3204.00,0.0067
3203.00,0.0067
3202.00,0.0067
3201.00,0.0067
3200.00,0.0067
3199.00,0.0067
3198.00,0.0067
3197.00,0.0067
3196.00,0.0067
3195.00,0.0067
3194.00,0.0067
3193.00,0.0067
3192.00,0.0067
3191.00,0.0067
3190.00,0.0067
3189.00,0.0067
3188.00,0.0068
3187.00,0.0068
3186.00,0.0067
3185.00,0.0067
3184.00,0.0067
3183.00,0.0067
3182.00,0.0067
3181.00,0.0067
3180.00,0.0067
3179.00,0.0067
3178.00,0.0067
3177.00,0.0066
3176.00,0.0066
3175.00,0.0066
3174.00,0.0066
3173.00,0.0067
3172.00,0.0067
3171.00,0.0067
3170.00,0.0067
3169.00,0.0067
3168.00,0.0067
3167.00,0.0067
3166.00,0.0067
3165.00,0.0067
3164.00,0.0067
3163.00,0.0067
3162.00,0.0067
3161.00,0.0067
3160.00,0.0066
3159.00,0.0066
3158.00,0.0066
3157.00,0.0066
3156.00,0.0066
3155.00,0.0066
3154.00,0.0066
3153.00,0.0066
3152.00,0.0065
3151.00,0.0065
3150.00,0.0066
3149.00,0.0066
3148.00,0.0066
3147.00,0.0066
3146.00,0.0066
3145.00,0.0066
3144.00,0.0066
3143.00,0.0066
3142.00,0.0066
3141.00,0.0067
3140.00,0.0067
3139.00,0.0067
3138.00,0.0067
3137.00,0.0067
3136.00,0.0067
3135.00,0.0066
3134.00,0.0066
3133.00,0.0065
3132.00,0.0065
3131.00,0.0065
3130.00,0.0066
3129.00,0.0066
3128.00,0.0066
3127.00,0.0065
3126.00,0.0065
3125.00,0.0065
3124.00,0.0065
3123.00,0.0066
3122.00,0.0066
3121.00,0.0066
3120.00,0.0067
3119.00,0.0067
3118.00,0.0067
3117.00,0.0066
3116.00,0.0066
3115.00,0.0065
3114.00,0.0065
3113.00,0.0065
3112.00,0.0065
3111.00,0.0065
3110.00,0.0065
3109.00,0.0065
3108.00,0.0065
3107.00,0.0065
3106.00,0.0065
3105.00,0.0065
3104.00,0.0065
3103.00,0.0065
3102.00,0.0065
3101.00,0.0065
3100.00,0.0065
3099.00,0.0065
3098.00,0.0064
3097.00,0.0064
3096.00,0.0064
3095.00,0.0064
3094.00,0.0065
3093.00,0.0065
3092.00,0.0065
3091.00,0.0065
3090.00,0.0065
3089.00,0.0065
3088.00,0.0065
3087.00,0.0065
3086.00,0.0065
3085.00,0.0065
3084.00,0.0065
3083.00,0.0065
3082.00,0.0065
3081.00,0.0065
3080.00,0.0065
3079.00,0.0065
3078.00,0.0065
3077.00,0.0065
3076.00,0.0064
3075.00,0.0064
3074.00,0.0064
3073.00,0.0064
3072.00,0.0064
3071.00,0.0064
3070.00,0.0064
3069.00,0.0064
3068.00,0.0064
3067.00,0.0064
3066.00,0.0065
3065.00,0.0065
3064.00,0.0064
3063.00,0.0064
3062.00,0.0064
3061.00,0.0064
3060.00,0.0064
3059.00,0.0064
3058.00,0.0064
3057.00,0.0063
3056.00,0.0063
3055.00,0.0063
3054.00,0.0063
3053.00,0.0063
3052.00,0.0063
3051.00,0.0063
3050.00,0.0063
3049.00,0.0063
3048.00,0.0063
3047.00,0.0063
3046.00,0.0063
3045.00,0.0064
3044.00,0.0064
3043.00,0.0063
3042.00,0.0063
3041.00,0.0063
3040.00,0.0062
3039.00,0.0062
3038.00,0.0062
3037.00,0.0063
3036.00,0.0063
3035.00,0.0063
3034.00,0.0063
3033.00,0.0063
3032.00,0.0063
3031.00,0.0062
3030.00,0.0062
3029.00,0.0062
3028.00,0.0062
3027.00,0.0062
3026.00,0.0062
3025.00,0.0062
3024.00,0.0062
3023.00,0.0062
3022.00,0.0061
3021.00,0.0061
3020.00,0.0060
3019.00,0.0060
3018.00,0.0060
3017.00,0.0061
3016.00,0.0061
3015.00,0.0061
3014.00,0.0061
3013.00,0.0061
3012.00,0.0061
3011.00,0.0061
3010.00,0.0060
3009.00,0.0060
3008.00,0.0059
3007.00,0.0059
3006.00,0.0059
3005.00,0.0059
3004.00,0.0058
3003.00,0.0058
3002.00,0.0058
3001.00,0.0058
3000.00,0.0058
2999.00,0.0058
2998.00,0.0057
2997.00,0.0057
2996.00,0.0057
2995.00,0.0057
2994.00,0.0056
2993.00,0.0056
2992.00,0.0056
2991.00,0.0056
2990.00,0.0056
2989.00,0.0055
2988.00,0.0055
2987.00,0.0055
2986.00,0.0054
2985.00,0.0054
2984.00,0.0053
2983.00,0.0052
2982.00,0.0051
2981.00,0.0051
2980.00,0.0051
2979.00,0.0051
2978.00,0.0051
2977.00,0.0051
2976.00,0.0052
2975.00,0.0052
2974.00,0.0052
2973.00,0.0051
2972.00,0.0051
2971.00,0.0050
2970.00,0.0050
2969.00,0.0049
2968.00,0.0049
2967.00,0.0049
2966.00,0.0048
2965.00,0.0048
2964.00,0.0048
2963.00,0.0047
2962.00,0.0047
2961.00,0.0047
2960.00,0.0046
2959.00,0.0046
2958.00,0.0046
2957.00,0.0046
2956.00,0.0046
2955.00,0.0046
2954.00,0.0047
2953.00,0.0047
2952.00,0.0047
2951.00,0.0048
2950.00,0.0047
2949.00,0.0047
2948.00,0.0047
2947.00,0.0047
2946.00,0.0047
2945.00,0.0047
2944.00,0.0047
2943.00,0.0047
2942.00,0.0046
2941.00,0.0045
2940.00,0.0045
2939.00,0.0044
2938.00,0.0043
2937.00,0.0042
2936.00,0.0041
2935.00,0.0040
2934.00,0.0039
2933.00,0.0038
2932.00,0.0036
2931.00,0.0035
2930.00,0.0033
2929.00,0.0032
2928.00,0.0031
2927.00,0.0030
2926.00,0.0030
2925.00,0.0030
2924.00,0.0030
2923.00,0.0030
2922.00,0.0029
2921.00,0.0029
2920.00,0.0029
2919.00,0.0029
2918.00,0.0029
2917.00,0.0030
2916.00,0.0031
2915.00,0.0032
2914.00,0.0034
2913.00,0.0037
2912.00,0.0038
2911.00,0.0040
2910.00,0.0041
2909.00,0.0042
2908.00,0.0042
2907.00,0.0043
2906.00,0.0044
2905.00,0.0045
2904.00,0.0045
2903.00,0.0045
2902.00,0.0046
2901.00,0.0046
2900.00,0.0046
2899.00,0.0046
2898.00,0.0046
2897.00,0.0046
2896.00,0.0047
2895.00,0.0047
2894.00,0.0047
2893.00,0.0047
2892.00,0.0047
2891.00,0.0047
2890.00,0.0048
2889.00,0.0048
2888.00,0.0048
2887.00,0.0049
2886.00,0.0049
2885.00,0.0049
2884.00,0.0049
2883.00,0.0049
2882.00,0.0049
2881.00,0.0050
2880.00,0.0050
2879.00,0.0050
2878.00,0.0050
2877.00,0.0050
2876.00,0.0050
2875.00,0.0049
2874.00,0.0049
2873.00,0.0049
2872.00,0.0048
2871.00,0.0048
2870.00,0.0047
2869.00,0.0047
2868.00,0.0047
2867.00,0.0047
2866.00,0.0047
2865.00,0.0046
2864.00,0.0046
2863.00,0.0045
2862.00,0.0045
2861.00,0.0044
2860.00,0.0044
2859.00,0.0043
2858.00,0.0042
2857.00,0.0041
2856.00,0.0040
2855.00,0.0040
2854.00,0.0039
2853.00,0.0040
2852.00,0.0040
2851.00,0.0040
2850.00,0.0041
2849.00,0.0041
2848.00,0.0042
2847.00,0.0043
2846.00,0.0045
2845.00,0.0046
2844.00,0.0047
2843.00,0.0048
2842.00,0.0049
2841.00,0.0050
2840.00,0.0050
2839.00,0.0051
2838.00,0.0052
2837.00,0.0052
2836.00,0.0052
2835.00,0.0052
2834.00,0.0052
2833.00,0.0052
2832.00,0.0053
2831.00,0.0053
2830.00,0.0052
2829.00,0.0052
2828.00,0.0052
2827.00,0.0052
2826.00,0.0052
2825.00,0.0052
2824.00,0.0053
2823.00,0.0053
2822.00,0.0053
2821.00,0.0053
2820.00,0.0053
2819.00,0.0053
2818.00,0.0053
2817.00,0.0054
2816.00,0.0054
2815.00,0.0054
2814.00,0.0054
2813.00,0.0054
2812.00,0.0054
2811.00,0.0054
2810.00,0.0054
2809.00,0.0053
2808.00,0.0053
2807.00,0.0053
2806.00,0.0053
2805.00,0.0053
2804.00,0.0053
2803.00,0.0053
2802.00,0.0054
2801.00,0.0053
2800.00,0.0053
2799.00,0.0053
2798.00,0.0053
2797.00,0.0053
2796.00,0.0053
2795.00,0.0053
2794.00,0.0052
2793.00,0.0052
2792.00,0.0052
2791.00,0.0052
2790.00,0.0053
2789.00,0.0053
2788.00,0.0053
2787.00,0.0053
2786.00,0.0053
2785.00,0.0052
2784.00,0.0052
2783.00,0.0052
2782.00,0.0052
2781.00,0.0052
2780.00,0.0052
2779.00,0.0052
2778.00,0.0052
2777.00,0.0052
2776.00,0.0052
2775.00,0.0052
2774.00,0.0052
2773.00,0.0052
2772.00,0.0052
2771.00,0.0052
2770.00,0.0052
2769.00,0.0052
2768.00,0.0052
2767.00,0.0052
2766.00,0.0052
2765.00,0.0052
2764.00,0.0052
2763.00,0.0052
2762.00,0.0052
2761.00,0.0052
2760.00,0.0051
2759.00,0.0051
2758.00,0.0052
2757.00,0.0052
2756.00,0.0052
2755.00,0.0052
2754.00,0.0052
2753.00,0.0052
2752.00,0.0052
2751.00,0.0052
2750.00,0.0052
2749.00,0.0052
2748.00,0.0052
2747.00,0.0052
2746.00,0.0051
2745.00,0.0051
2744.00,0.0051
2743.00,0.0051
2742.00,0.0051
2741.00,0.0051
2740.00,0.0052
2739.00,0.0052
2738.00,0.0052
2737.00,0.0052
2736.00,0.0051
2735.00,0.0051
2734.00,0.0051
2733.00,0.0051
2732.00,0.0051
2731.00,0.0051
2730.00,0.0051
2729.00,0.0051
2728.00,0.0051
2727.00,0.0051
2726.00,0.0051
2725.00,0.0051
2724.00,0.0051
2723.00,0.0051
2722.00,0.0052
2721.00,0.0052
2720.00,0.0052
2719.00,0.0052
2718.00,0.0052
2717.00,0.0052
2716.00,0.0052
2715.00,0.0052
2714.00,0.0052
2713.00,0.0052
2712.00,0.0051
2711.00,0.0051
2710.00,0.0051
2709.00,0.0051
2708.00,0.0051
2707.00,0.0051
2706.00,0.0051
2705.00,0.0051
2704.00,0.0051
2703.00,0.0051
2702.00,0.0051
2701.00,0.0051
2700.00,0.0051
2699.00,0.0051
2698.00,0.0051
2697.00,0.0051
2696.00,0.0051
2695.00,0.0051
2694.00,0.0051
2693.00,0.0051
2692.00,0.0051
2691.00,0.0051
2690.00,0.0051
2689.00,0.0051
2688.00,0.0051
2687.00,0.0051
2686.00,0.0051
2685.00,0.0051
2684.00,0.0051
2683.00,0.0051
2682.00,0.0051
2681.00,0.0051
2680.00,0.0051
2679.00,0.0051
2678.00,0.0050
2677.00,0.0050
2676.00,0.0050
2675.00,0.0050
2674.00,0.0050
2673.00,0.0050
2672.00,0.0051
2671.00,0.0051
2670.00,0.0051
2669.00,0.0051
2668.00,0.0051
2667.00,0.0051
2666.00,0.0051
2665.00,0.0052
2664.00,0.0052
2663.00,0.0052
2662.00,0.0052
2661.00,0.0052
2660.00,0.0052
2659.00,0.0052
2658.00,0.0052
2657.00,0.0053
2656.00,0.0053
2655.00,0.0053
2654.00,0.0053
2653.00,0.0054
2652.00,0.0054
2651.00,0.0053
2650.00,0.0053
2649.00,0.0053
2648.00,0.0053
2647.00,0.0053
2646.00,0.0053
2645.00,0.0053
2644.00,0.0053
2643.00,0.0053
2642.00,0.0053
2641.00,0.0053
2640.00,0.0053
2639.00,0.0053
2638.00,0.0053
2637.00,0.0053
2636.00,0.0053
2635.00,0.0053
2634.00,0.0053
2633.00,0.0053
2632.00,0.0053
2631.00,0.0053
2630.00,0.0053
2629.00,0.0053
2628.00,0.0054
2627.00,0.0054
2626.00,0.0054
2625.00,0.0053
2624.00,0.0053
2623.00,0.0053
2622.00,0.0053
2621.00,0.0053
2620.00,0.0053
2619.00,0.0053
2618.00,0.0053
2617.00,0.0053
2616.00,0.0053
2615.00,0.0053
2614.00,0.0053
2613.00,0.0053
2612.00,0.0054
2611.00,0.0054
2610.00,0.0054
2609.00,0.0054
2608.00,0.0054
2607.00,0.0054
2606.00,0.0054
2605.00,0.0054
2604.00,0.0054
2603.00,0.0054
2602.00,0.0053
2601.00,0.0053
2600.00,0.0053
2599.00,0.0053
2598.00,0.0053
2597.00,0.0053
2596.00,0.0053
2595.00,0.0053
2594.00,0.0053
2593.00,0.0053
2592.00,0.0054
2591.00,0.0054
2590.00,0.0054
2589.00,0.0053
2588.00,0.0053
2587.00,0.0053
2586.00,0.0053
2585.00,0.0053
2584.00,0.0053
2583.00,0.0053
2582.00,0.0053
2581.00,0.0054
2580.00,0.0054
2579.00,0.0055
2578.00,0.0054
2577.00,0.0054
2576.00,0.0054
2575.00,0.0053
2574.00,0.0053
2573.00,0.0053
2572.00,0.0053
2571.00,0.0053
2570.00,0.0053
2569.00,0.0053
2568.00,0.0053
2567.00,0.0053
2566.00,0.0054
2565.00,0.0054
2564.00,0.0054
2563.00,0.0054
2562.00,0.0053
2561.00,0.0053
2560.00,0.0052
2559.00,0.0052
2558.00,0.0052
2557.00,0.0053
2556.00,0.0053
2555.00,0.0053
2554.00,0.0053
2553.00,0.0054
2552.00,0.0054
2551.00,0.0054
2550.00,0.0054
2549.00,0.0054
2548.00,0.0054
2547.00,0.0053
2546.00,0.0053
2545.00,0.0053
2544.00,0.0052
2543.00,0.0052
2542.00,0.0052
2541.00,0.0052
2540.00,0.0053
2539.00,0.0053
2538.00,0.0053
2537.00,0.0053
2536.00,0.0053
2535.00,0.0052
2534.00,0.0052
2533.00,0.0052
2532.00,0.0052
2531.00,0.0052
2530.00,0.0052
2529.00,0.0052
2528.00,0.0052
2527.00,0.0053
2526.00,0.0053
2525.00,0.0054
2524.00,0.0054
2523.00,0.0054
2522.00,0.0054
2521.00,0.0054
2520.00,0.0053
2519.00,0.0053
2518.00,0.0053
2517.00,0.0053
2516.00,0.0053
2515.00,0.0053
2514.00,0.0054
2513.00,0.0054
2512.00,0.0054
2511.00,0.0054
2510.00,0.0053
2509.00,0.0052
2508.00,0.0051
2507.00,0.0051
2506.00,0.0051
2505.00,0.0052
2504.00,0.0053
2503.00,0.0053
2502.00,0.0053
2501.00,0.0053
2500.00,0.0053
2499.00,0.0053
2498.00,0.0053
2497.00,0.0053
2496.00,0.0054
2495.00,0.0054
2494.00,0.0054
2493.00,0.0054
2492.00,0.0054
2491.00,0.0054
2490.00,0.0053
2489.00,0.0053
2488.00,0.0054
2487.00,0.0054
2486.00,0.0054
2485.00,0.0053
2484.00,0.0053
2483.00,0.0053
2482.00,0.0053
2481.00,0.0053
2480.00,0.0053
2479.00,0.0054
2478.00,0.0054
2477.00,0.0054
2476.00,0.0054
2475.00,0.0054
2474.00,0.0054
2473.00,0.0054
2472.00,0.0054
2471.00,0.0054
2470.00,0.0054
2469.00,0.0054
2468.00,0.0053
2467.00,0.0053
2466.00,0.0053
2465.00,0.0053
2464.00,0.0054
2463.00,0.0054
2462.00,0.0054
2461.00,0.0054
2460.00,0.0055
2459.00,0.0055
2458.00,0.0054
2457.00,0.0054
2456.00,0.0054
2455.00,0.0054
2454.00,0.0054
2453.00,0.0055
2452.00,0.0055
2451.00,0.0055
2450.00,0.0055
2449.00,0.0055
2448.00,0.0055
2447.00,0.0054
2446.00,0.0054
2445.00,0.0054
2444.00,0.0054
2443.00,0.0054
2442.00,0.0053
2441.00,0.0053
2440.00,0.0053
2439.00,0.0053
2438.00,0.0053
2437.00,0.0053
2436.00,0.0053
2435.00,0.0053
2434.00,0.0053
2433.00,0.0053
2432.00,0.0053
2431.00,0.0052
2430.00,0.0052
2429.00,0.0053
2428.00,0.0053
2427.00,0.0053
2426.00,0.0054
2425.00,0.0054
2424.00,0.0054
2423.00,0.0054
2422.00,0.0053
2421.00,0.0053
2420.00,0.0053
2419.00,0.0053
2418.00,0.0053
2417.00,0.0052
2416.00,0.0052
2415.00,0.0052
2414.00,0.0052
2413.00,0.0053
2412.00,0.0053
2411.00,0.0052
2410.00,0.0052
2409.00,0.0052
2408.00,0.0052
2407.00,0.0052
2406.00,0.0052
2405.00,0.0053
2404.00,0.0053
2403.00,0.0053
2402.00,0.0053
2401.00,0.0053
2400.00,0.0053
2399.00,0.0052
2398.00,0.0052
2397.00,0.0052
2396.00,0.0052
2395.00,0.0052
2394.00,0.0052
2393.00,0.0052
2392.00,0.0052
2391.00,0.0052
2390.00,0.0052
2389.00,0.0052
2388.00,0.0052
2387.00,0.0052
2386.00,0.0052
2385.00,0.0052
2384.00,0.0051
2383.00,0.0051
2382.00,0.0050
2381.00,0.0049
2380.00,0.0048
2379.00,0.0047
2378.00,0.0046
2377.00,0.0045
2376.00,0.0044
2375.00,0.0043
2374.00,0.0042
2373.00,0.0042
2372.00,0.0041
2371.00,0.0041
2370.00,0.0042
2369.00,0.0042
2368.00,0.0042
2367.00,0.0041
2366.00,0.0040
2365.00,0.0040
2364.00,0.0040
2363.00,0.0041
2362.00,0.0042
2361.00,0.0043
2360.00,0.0044
2359.00,0.0045
2358.00,0.0046
2357.00,0.0047
2356.00,0.0048
2355.00,0.0050
2354.00,0.0051
2353.00,0.0052
2352.00,0.0053
2351.00,0.0053
2350.00,0.0052
2349.00,0.0050
2348.00,0.0047
2347.00,0.0046
2346.00,0.0046
2345.00,0.0047
2344.00,0.0047
2343.00,0.0047
2342.00,0.0048
2341.00,0.0048
2340.00,0.0048
2339.00,0.0047
2338.00,0.0047
2337.00,0.0046
2336.00,0.0046
2335.00,0.0046
2334.00,0.0046
2333.00,0.0047
2332.00,0.0048
2331.00,0.0048
2330.00,0.0048
2329.00,0.0049
2328.00,0.0050
2327.00,0.0051
2326.00,0.0053
2325.00,0.0054
2324.00,0.0054
2323.00,0.0054
2322.00,0.0054
2321.00,0.0053
2320.00,0.0053
2319.00,0.0053
2318.00,0.0053
2317.00,0.0053
2316.00,0.0052
2315.00,0.0053
2314.00,0.0053
2313.00,0.0053
2312.00,0.0053
2311.00,0.0054
2310.00,0.0054
2309.00,0.0054
2308.00,0.0054
2307.00,0.0053
2306.00,0.0053
2305.00,0.0053
2304.00,0.0053
2303.00,0.0053
2302.00,0.0052
2301.00,0.0052
2300.00,0.0052
2299.00,0.0052
2298.00,0.0052
2297.00,0.0053
2296.00,0.0053
2295.00,0.0054
2294.00,0.0055
2293.00,0.0055
2292.00,0.0056
2291.00,0.0057
2290.00,0.0057
2289.00,0.0058
2288.00,0.0058
2287.00,0.0058
2286.00,0.0058
2285.00,0.0058
2284.00,0.0058
2283.00,0.0057
2282.00,0.0057
2281.00,0.0056
2280.00,0.0056
2279.00,0.0055
2278.00,0.0054
2277.00,0.0054
2276.00,0.0054
2275.00,0.0055
2274.00,0.0056
2273.00,0.0056
2272.00,0.0055
2271.00,0.0055
2270.00,0.0056
2269.00,0.0055
2268.00,0.0055
2267.00,0.0055
2266.00,0.0055
2265.00,0.0056
2264.00,0.0057
2263.00,0.0057
2262.00,0.0057
2261.00,0.0058
2260.00,0.0058
2259.00,0.0058
2258.00,0.0058
2257.00,0.0056
2256.00,0.0055
2255.00,0.0054
2254.00,0.0053
2253.00,0.0054
2252.00,0.0054
2251.00,0.0055
2250.00,0.0055
2249.00,0.0055
2248.00,0.0055
2247.00,0.0055
2246.00,0.0055
2245.00,0.0055
2244.00,0.0055
2243.00,0.0054
2242.00,0.0054
2241.00,0.0054
2240.00,0.0054
2239.00,0.0055
2238.00,0.0056
2237.00,0.0057
2236.00,0.0057
2235.00,0.0056
2234.00,0.0056
2233.00,0.0057
2232.00,0.0057
2231.00,0.0057
2230.00,0.0057
2229.00,0.0057
2228.00,0.0056
2227.00,0.0055
2226.00,0.0054
2225.00,0.0053
2224.00,0.0053
2223.00,0.0054
2222.00,0.0056
2221.00,0.0057
2220.00,0.0058
2219.00,0.0057
2218.00,0.0055
2217.00,0.0054
2216.00,0.0054
2215.00,0.0054
2214.00,0.0055
2213.00,0.0056
2212.00,0.0057
2211.00,0.0057
2210.00,0.0056
2209.00,0.0055
2208.00,0.0055
2207.00,0.0054
2206.00,0.0054
2205.00,0.0054
2204.00,0.0053
2203.00,0.0053
2202.00,0.0053
2201.00,0.0053
2200.00,0.0054
2199.00,0.0055
2198.00,0.0057
2197.00,0.0058
2196.00,0.0058
2195.00,0.0057
2194.00,0.0056
2193.00,0.0054
2192.00,0.0053
2191.00,0.0053
2190.00,0.0053
2189.00,0.0055
2188.00,0.0057
2187.00,0.0059
2186.00,0.0061
2185.00,0.0061
2184.00,0.0060
2183.00,0.0057
2182.00,0.0055
2181.00,0.0055
2180.00,0.0055
2179.00,0.0055
2178.00,0.0055
2177.00,0.0053
2176.00,0.0053
2175.00,0.0053
2174.00,0.0055
2173.00,0.0058
2172.00,0.0060
2171.00,0.0062
2170.00,0.0062
2169.00,0.0062
2168.00,0.0061
2167.00,0.0060
2166.00,0.0059
2165.00,0.0059
2164.00,0.0061
2163.00,0.0062
2162.00,0.0061
2161.00,0.0058
2160.00,0.0053
2159.00,0.0050
2158.00,0.0048
2157.00,0.0049
2156.00,0.0049
2155.00,0.0050
2154.00,0.0050
2153.00,0.0051
2152.00,0.0050
2151.00,0.0048
2150.00,0.0047
2149.00,0.0047
2148.00,0.0048
2147.00,0.0049
2146.00,0.0051
2145.00,0.0051
2144.00,0.0052
2143.00,0.0052
2142.00,0.0052
2141.00,0.0052
2140.00,0.0052
2139.00,0.0051
2138.00,0.0051
2137.00,0.0049
2136.00,0.0048
2135.00,0.0046
2134.00,0.0046
2133.00,0.0047
2132.00,0.0047
2131.00,0.0048
2130.00,0.0048
2129.00,0.0048
2128.00,0.0048
2127.00,0.0049
2126.00,0.0050
2125.00,0.0050
2124.00,0.0050
2123.00,0.0050
2122.00,0.0050
2121.00,0.0051
2120.00,0.0052
2119.00,0.0053
2118.00,0.0054
2117.00,0.0054
2116.00,0.0054
2115.00,0.0053
2114.00,0.0053
2113.00,0.0054
2112.00,0.0054
2111.00,0.0054
2110.00,0.0054
2109.00,0.0054
2108.00,0.0054
2107.00,0.0054
2106.00,0.0054
2105.00,0.0054
2104.00,0.0054
2103.00,0.0053
2102.00,0.0053
2101.00,0.0053
2100.00,0.0052
2099.00,0.0052
2098.00,0.0052
2097.00,0.0051
2096.00,0.0051
2095.00,0.0051
2094.00,0.0051
2093.00,0.0051
2092.00,0.0051
2091.00,0.0052
2090.00,0.0052
2089.00,0.0052
2088.00,0.0052
2087.00,0.0052
2086.00,0.0052
2085.00,0.0052
2084.00,0.0051
2083.00,0.0051
2082.00,0.0051
2081.00,0.0051
2080.00,0.0052
2079.00,0.0053
2078.00,0.0054
2077.00,0.0054
2076.00,0.0054
2075.00,0.0054
2074.00,0.0054
2073.00,0.0054
2072.00,0.0054
2071.00,0.0054
2070.00,0.0054
2069.00,0.0053
2068.00,0.0052
2067.00,0.0052
2066.00,0.0052
2065.00,0.0052
2064.00,0.0052
2063.00,0.0052
2062.00,0.0052
2061.00,0.0052
2060.00,0.0052
2059.00,0.0052
2058.00,0.0053
2057.00,0.0054
2056.00,0.0055
2055.00,0.0056
2054.00,0.0057
2053.00,0.0057
2052.00,0.0058
2051.00,0.0058
2050.00,0.0057
2049.00,0.0055
2048.00,0.0053
2047.00,0.0053
2046.00,0.0054
2045.00,0.0055
2044.00,0.0057
2043.00,0.0058
2042.00,0.0059
2041.00,0.0059
2040.00,0.0059
2039.00,0.0059
2038.00,0.0060
2037.00,0.0061
2036.00,0.0062
2035.00,0.0062
2034.00,0.0062
2033.00,0.0060
2032.00,0.0058
2031.00,0.0056
2030.00,0.0056
2029.00,0.0057
2028.00,0.0057
2027.00,0.0056
2026.00,0.0055
2025.00,0.0055
2024.00,0.0056
2023.00,0.0056
2022.00,0.0057
2021.00,0.0056
2020.00,0.0056
2019.00,0.0055
2018.00,0.0054
2017.00,0.0055
2016.00,0.0055
2015.00,0.0057
2014.00,0.0058
2013.00,0.0059
2012.00,0.0059
2011.00,0.0058
2010.00,0.0057
2009.00,0.0056
2008.00,0.0054
2007.00,0.0052
2006.00,0.0051
2005.00,0.0051
2004.00,0.0052
2003.00,0.0053
2002.00,0.0054
2001.00,0.0054
2000.00,0.0054
1999.00,0.0055
1998.00,0.0056
1997.00,0.0057
1996.00,0.0058
1995.00,0.0059
1994.00,0.0058
1993.00,0.0057
1992.00,0.0057
1991.00,0.0057
1990.00,0.0058
1989.00,0.0059
1988.00,0.0058
1987.00,0.0057
1986.00,0.0057
1985.00,0.0058
1984.00,0.0060
1983.00,0.0062
1982.00,0.0062
1981.00,0.0062
1980.00,0.0061
1979.00,0.0060
1978.00,0.0058
1977.00,0.0056
1976.00,0.0055
1975.00,0.0055
1974.00,0.0056
1973.00,0.0056
1972.00,0.0056
1971.00,0.0056
1970.00,0.0056
1969.00,0.0057
1968.00,0.0057
1967.00,0.0056
1966.00,0.0056
1965.00,0.0057
1964.00,0.0057
1963.00,0.0057
1962.00,0.0057
1961.00,0.0056
1960.00,0.0054
1959.00,0.0052
1958.00,0.0051
1957.00,0.0051
1956.00,0.0052
1955.00,0.0053
1954.00,0.0054
1953.00,0.0054
1952.00,0.0053
1951.00,0.0053
1950.00,0.0053
1949.00,0.0053
1948.00,0.0053
1947.00,0.0053
1946.00,0.0053
1945.00,0.0053
1944.00,0.0053
1943.00,0.0052
1942.00,0.0052
1941.00,0.0051
1940.00,0.0051
1939.00,0.0051
1938.00,0.0051
1937.00,0.0051
1936.00,0.0051
1935.00,0.0051
1934.00,0.0052
1933.00,0.0052
1932.00,0.0052
1931.00,0.0052
1930.00,0.0051
1929.00,0.0050
1928.00,0.0050
1927.00,0.0050
1926.00,0.0050
1925.00,0.0050
1924.00,0.0051
1923.00,0.0051
1922.00,0.0052
1921.00,0.0052
1920.00,0.0052
1919.00,0.0052
1918.00,0.0051
1917.00,0.0050
1916.00,0.0050
1915.00,0.0050
1914.00,0.0050
1913.00,0.0050
1912.00,0.0050
1911.00,0.0049
1910.00,0.0049
1909.00,0.0049
1908.00,0.0050
1907.00,0.0051
1906.00,0.0051
1905.00,0.0051
1904.00,0.0051
1903.00,0.0051
1902.00,0.0051
1901.00,0.0050
1900.00,0.0050
1899.00,0.0050
1898.00,0.0051
1897.00,0.0051
1896.00,0.0050
1895.00,0.0049
1894.00,0.0049
1893.00,0.0049
1892.00,0.0049
1891.00,0.0049
1890.00,0.0048
1889.00,0.0049
1888.00,0.0049
1887.00,0.0050
1886.00,0.0050
1885.00,0.0050
1884.00,0.0049
1883.00,0.0049
1882.00,0.0049
1881.00,0.0049
1880.00,0.0049
1879.00,0.0049
1878.00,0.0049
1877.00,0.0050
1876.00,0.0050
1875.00,0.0050
1874.00,0.0049
1873.00,0.0049
1872.00,0.0049
1871.00,0.0050
1870.00,0.0051
1869.00,0.0052
1868.00,0.0051
1867.00,0.0050
1866.00,0.0051
1865.00,0.0051
1864.00,0.0051
1863.00,0.0051
1862.00,0.0050
1861.00,0.0049
1860.00,0.0048
1859.00,0.0048
1858.00,0.0048
1857.00,0.0048
1856.00,0.0048
1855.00,0.0048
1854.00,0.0048
1853.00,0.0049
1852.00,0.0049
1851.00,0.0049
1850.00,0.0049
1849.00,0.0049
1848.00,0.0049
1847.00,0.0049
1846.00,0.0049
1845.00,0.0049
1844.00,0.0049
1843.00,0.0048
1842.00,0.0048
1841.00,0.0048
1840.00,0.0048
1839.00,0.0049
1838.00,0.0048
1837.00,0.0048
1836.00,0.0048
1835.00,0.0048
1834.00,0.0048
1833.00,0.0048
1832.00,0.0048
1831.00,0.0048
1830.00,0.0047
1829.00,0.0047
1828.00,0.0046
1827.00,0.0046
1826.00,0.0045
1825.00,0.0045
1824.00,0.0046
1823.00,0.0046
1822.00,0.0047
1821.00,0.0048
1820.00,0.0048
1819.00,0.0048
1818.00,0.0047
1817.00,0.0047
1816.00,0.0047
1815.00,0.0046
1814.00,0.0046
1813.00,0.0046
1812.00,0.0046
1811.00,0.0045
1810.00,0.0046
1809.00,0.0047
1808.00,0.0047
1807.00,0.0047
1806.00,0.0047
1805.00,0.0047
1804.00,0.0046
1803.00,0.0046
1802.00,0.0046
1801.00,0.0047
1800.00,0.0047
1799.00,0.0048
1798.00,0.0049
1797.00,0.0050
1796.00,0.0050
1795.00,0.0050
1794.00,0.0051
1793.00,0.0051
1792.00,0.0050
1791.00,0.0049
1790.00,0.0048
1789.00,0.0048
1788.00,0.0048
1787.00,0.0048
1786.00,0.0048
1785.00,0.0048
1784.00,0.0048
1783.00,0.0047
1782.00,0.0047
1781.00,0.0046
1780.00,0.0046
1779.00,0.0047
1778.00,0.0048
1777.00,0.0049
1776.00,0.0049
1775.00,0.0050
1774.00,0.0051
1773.00,0.0052
1772.00,0.0051
1771.00,0.0050
1770.00,0.0050
1769.00,0.0050
1768.00,0.0050
1767.00,0.0049
1766.00,0.0049
1765.00,0.0049
1764.00,0.0049
1763.00,0.0049
1762.00,0.0049
1761.00,0.0049
1760.00,0.0049
1759.00,0.0049
1758.00,0.0049
1757.00,0.0049
1756.00,0.0049
1755.00,0.0049
1754.00,0.0049
1753.00,0.0049
1752.00,0.0050
1751.00,0.0051
1750.00,0.0051
1749.00,0.0050
1748.00,0.0049
1747.00,0.0049
1746.00,0.0048
1745.00,0.0048
1744.00,0.0047
1743.00,0.0047
1742.00,0.0048
1741.00,0.0050
1740.00,0.0052
1739.00,0.0052
1738.00,0.0052
1737.00,0.0053
1736.00,0.0055
1735.00,0.0057
1734.00,0.0058
1733.00,0.0056
1732.00,0.0054
1731.00,0.0052
1730.00,0.0052
1729.00,0.0052
1728.00,0.0053
1727.00,0.0054
1726.00,0.0055
1725.00,0.0056
1724.00,0.0056
1723.00,0.0056
1722.00,0.0056
1721.00,0.0055
1720.00,0.0053
1719.00,0.0053
1718.00,0.0055
1717.00,0.0057
1716.00,0.0058
1715.00,0.0058
1714.00,0.0058
1713.00,0.0058
1712.00,0.0058
1711.00,0.0058
1710.00,0.0058
1709.00,0.0058
1708.00,0.0058
1707.00,0.0058
1706.00,0.0058
1705.00,0.0058
1704.00,0.0058
1703.00,0.0059
1702.00,0.0060
1701.00,0.0063
1700.00,0.0065
1699.00,0.0065
1698.00,0.0064
1697.00,0.0063
1696.00,0.0061
1695.00,0.0061
1694.00,0.0062
1693.00,0.0063
1692.00,0.0063
1691.00,0.0064
1690.00,0.0064
1689.00,0.0065
1688.00,0.0064
1687.00,0.0063
1686.00,0.0061
1685.00,0.0060
1684.00,0.0059
1683.00,0.0060
1682.00,0.0062
1681.00,0.0064
1680.00,0.0065
1679.00,0.0066
1678.00,0.0066
1677.00,0.0067
1676.00,0.0068
1675.00,0.0069
1674.00,0.0069
1673.00,0.0068
1672.00,0.0068
1671.00,0.0069
1670.00,0.0069
1669.00,0.0069
1668.00,0.0069
1667.00,0.0069
1666.00,0.0069
1665.00,0.0070
1664.00,0.0071
1663.00,0.0072
1662.00,0.0072
1661.00,0.0072
1660.00,0.0072
1659.00,0.0073
1658.00,0.0073
1657.00,0.0072
1656.00,0.0070
1655.00,0.0068
1654.00,0.0068
1653.00,0.0069
1652.00,0.0071
1651.00,0.0072
1650.00,0.0074
1649.00,0.0075
1648.00,0.0077
1647.00,0.0079
1646.00,0.0080
1645.00,0.0079
1644.00,0.0079
1643.00,0.0078
1642.00,0.0078
1641.00,0.0077
1640.00,0.0077
1639.00,0.0077
1638.00,0.0077
1637.00,0.0077
1636.00,0.0076
1635.00,0.0076
1634.00,0.0076
1633.00,0.0077
1632.00,0.0078
1631.00,0.0078
1630.00,0.0078
1629.00,0.0077
1628.00,0.0077
1627.00,0.0078
1626.00,0.0078
1625.00,0.0079
1624.00,0.0080
1623.00,0.0080
1622.00,0.0080
1621.00,0.0080
1620.00,0.0079
1619.00,0.0079
1618.00,0.0080
1617.00,0.0080
1616.00,0.0080
1615.00,0.0079
1614.00,0.0079
1613.00,0.0080
1612.00,0.0080
1611.00,0.0081
1610.00,0.0082
1609.00,0.0082
1608.00,0.0083
1607.00,0.0083
1606.00,0.0083
1605.00,0.0082
1604.00,0.0081
1603.00,0.0081
1602.00,0.0081
1601.00,0.0081
1600.00,0.0081
1599.00,0.0081
1598.00,0.0081
1597.00,0.0081
1596.00,0.0081
1595.00,0.0082
1594.00,0.0082
1593.00,0.0082
1592.00,0.0082
1591.00,0.0082
1590.00,0.0081
1589.00,0.0081
1588.00,0.0081
1587.00,0.0081
1586.00,0.0081
1585.00,0.0081
1584.00,0.0081
1583.00,0.0081
1582.00,0.0081
1581.00,0.0081
1580.00,0.0081
1579.00,0.0081
1578.00,0.0081
1577.00,0.0081
1576.00,0.0081
1575.00,0.0081
1574.00,0.0081
1573.00,0.0081
1572.00,0.0081
1571.00,0.0081
1570.00,0.0082
1569.00,0.0082
1568.00,0.0082
1567.00,0.0082
1566.00,0.0082
1565.00,0.0082
1564.00,0.0082
1563.00,0.0081
1562.00,0.0078
1561.00,0.0075
1560.00,0.0074
1559.00,0.0079
1558.00,0.0081
1557.00,0.0082
1556.00,0.0083
1555.00,0.0083
1554.00,0.0083
1553.00,0.0082
1552.00,0.0080
1551.00,0.0079
1550.00,0.0078
1549.00,0.0079
1548.00,0.0079
1547.00,0.0080
1546.00,0.0080
1545.00,0.0080
1544.00,0.0081
1543.00,0.0082
1542.00,0.0083
1541.00,0.0083
1540.00,0.0077
1539.00,0.0072
1538.00,0.0072
1537.00,0.0073
1536.00,0.0074
1535.00,0.0074
1534.00,0.0073
1533.00,0.0072
1532.00,0.0072
1531.00,0.0072
1530.00,0.0073
1529.00,0.0074
1528.00,0.0074
1527.00,0.0075
1526.00,0.0076
1525.00,0.0077
1524.00,0.0077
1523.00,0.0077
1522.00,0.0077
1521.00,0.0074
1520.00,0.0072
1519.00,0.0070
1518.00,0.0070
1517.00,0.0069
1516.00,0.0070
1515.00,0.0070
1514.00,0.0072
1513.00,0.0073
1512.00,0.0073
1511.00,0.0072
1510.00,0.0071
1509.00,0.0070
1508.00,0.0070
1507.00,0.0067
1506.00,0.0065
1505.00,0.0068
1504.00,0.0069
1503.00,0.0070
1502.00,0.0069
1501.00,0.0069
1500.00,0.0068
1499.00,0.0067
1498.00,0.0067
1497.00,0.0067
1496.00,0.0067
1495.00,0.0067
1494.00,0.0068
1493.00,0.0069
1492.00,0.0069
1491.00,0.0069
1490.00,0.0069
1489.00,0.0067
1488.00,0.0065
1487.00,0.0065
1486.00,0.0065
1485.00,0.0065
1484.00,0.0065
1483.00,0.0065
1482.00,0.0065
1481.00,0.0066
1480.00,0.0065
1479.00,0.0065
1478.00,0.0064
1477.00,0.0063
1476.00,0.0064
1475.00,0.0066
1474.00,0.0069
1473.00,0.0070
1472.00,0.0068
1471.00,0.0065
1470.00,0.0064
1469.00,0.0063
1468.00,0.0063
1467.00,0.0062
1466.00,0.0063
1465.00,0.0063
1464.00,0.0063
1463.00,0.0063
1462.00,0.0062
1461.00,0.0062
1460.00,0.0061
1459.00,0.0062
1458.00,0.0065
1457.00,0.0067
1456.00,0.0066
1455.00,0.0065
1454.00,0.0065
1453.00,0.0065
1452.00,0.0065
1451.00,0.0066
1450.00,0.0066
1449.00,0.0067
1448.00,0.0067
1447.00,0.0067
1446.00,0.0067
1445.00,0.0067
1444.00,0.0068
1443.00,0.0068
1442.00,0.0068
1441.00,0.0069
1440.00,0.0069
1439.00,0.0069
1438.00,0.0069
1437.00,0.0070
1436.00,0.0071
1435.00,0.0071
1434.00,0.0070
1433.00,0.0070
1432.00,0.0070
1431.00,0.0070
1430.00,0.0069
1429.00,0.0069
1428.00,0.0070
1427.00,0.0070
1426.00,0.0070
1425.00,0.0070
1424.00,0.0071
1423.00,0.0070
1422.00,0.0070
1421.00,0.0069
1420.00,0.0069
1419.00,0.0069
1418.00,0.0069
1417.00,0.0070
1416.00,0.0071
1415.00,0.0071
1414.00,0.0071
1413.00,0.0071
1412.00,0.0071
1411.00,0.0071
1410.00,0.0070
1409.00,0.0070
1408.00,0.0070
1407.00,0.0070
1406.00,0.0070
1405.00,0.0070
1404.00,0.0071
1403.00,0.0072
1402.00,0.0072
1401.00,0.0071
1400.00,0.0071
1399.00,0.0072
1398.00,0.0072
1397.00,0.0072
1396.00,0.0072
1395.00,0.0072
1394.00,0.0072
1393.00,0.0072
1392.00,0.0073
1391.00,0.0073
1390.00,0.0073
1389.00,0.0073
1388.00,0.0074
1387.00,0.0074
1386.00,0.0073
1385.00,0.0073
1384.00,0.0073
1383.00,0.0073
1382.00,0.0073
1381.00,0.0073
1380.00,0.0073
1379.00,0.0073
1378.00,0.0073
1377.00,0.0072
1376.00,0.0072
1375.00,0.0072
1374.00,0.0072
1373.00,0.0073
1372.00,0.0073
1371.00,0.0074
1370.00,0.0074
1369.00,0.0074
1368.00,0.0074
1367.00,0.0074
1366.00,0.0073
1365.00,0.0072
1364.00,0.0072
1363.00,0.0071
1362.00,0.0072
1361.00,0.0072
1360.00,0.0072
1359.00,0.0073
1358.00,0.0073
1357.00,0.0073
1356.00,0.0072
1355.00,0.0072
1354.00,0.0072
1353.00,0.0072
1352.00,0.0072
1351.00,0.0072
1350.00,0.0072
1349.00,0.0072
1348.00,0.0072
1347.00,0.0072
1346.00,0.0072
1345.00,0.0072
1344.00,0.0072
1343.00,0.0072
1342.00,0.0071
1341.00,0.0071
1340.00,0.0071
1339.00,0.0071
1338.00,0.0071
1337.00,0.0071
1336.00,0.0071
1335.00,0.0071
1334.00,0.0071
1333.00,0.0071
1332.00,0.0071
1331.00,0.0071
1330.00,0.0072
1329.00,0.0072
1328.00,0.0071
1327.00,0.0071
1326.00,0.0071
1325.00,0.0070
1324.00,0.0071
1323.00,0.0071
1322.00,0.0071
1321.00,0.0071
1320.00,0.0072
1319.00,0.0072
1318.00,0.0072
1317.00,0.0072
1316.00,0.0072
1315.00,0.0073
1314.00,0.0073
1313.00,0.0073
1312.00,0.0074
1311.00,0.0074
1310.00,0.0074
1309.00,0.0074
1308.00,0.0073
1307.00,0.0073
1306.00,0.0073
1305.00,0.0073
1304.00,0.0073
1303.00,0.0073
1302.00,0.0073
1301.00,0.0072
1300.00,0.0072
1299.00,0.0072
1298.00,0.0073
1297.00,0.0073
1296.00,0.0074
1295.00,0.0074
1294.00,0.0074
1293.00,0.0074
1292.00,0.0074
1291.00,0.0074
1290.00,0.0075
1289.00,0.0075
1288.00,0.0075
1287.00,0.0074
1286.00,0.0074
1285.00,0.0073
1284.00,0.0073
1283.00,0.0073
1282.00,0.0074
1281.00,0.0074
1280.00,0.0074
1279.00,0.0074
1278.00,0.0075
1277.00,0.0075
1276.00,0.0075
1275.00,0.0075
1274.00,0.0075
1273.00,0.0075
1272.00,0.0075
1271.00,0.0075
1270.00,0.0074
1269.00,0.0074
1268.00,0.0074
1267.00,0.0074
1266.00,0.0074
1265.00,0.0074
1264.00,0.0074
1263.00,0.0074
1262.00,0.0074
1261.00,0.0075
1260.00,0.0075
1259.00,0.0076
1258.00,0.0076
1257.00,0.0076
1256.00,0.0076
1255.00,0.0076
1254.00,0.0076
1253.00,0.0075
1252.00,0.0075
1251.00,0.0076
1250.00,0.0076
1249.00,0.0077
1248.00,0.0077
1247.00,0.0078
1246.00,0.0078
1245.00,0.0078
1244.00,0.0078
1243.00,0.0079
1242.00,0.0079
1241.00,0.0080
1240.00,0.0081
1239.00,0.0081
1238.00,0.0082
1237.00,0.0082
1236.00,0.0082
1235.00,0.0083
1234.00,0.0084
1233.00,0.0085
1232.00,0.0085
1231.00,0.0085
1230.00,0.0085
1229.00,0.0086
1228.00,0.0086
1227.00,0.0087
1226.00,0.0087
1225.00,0.0088
1224.00,0.0088
1223.00,0.0089
1222.00,0.0089
1221.00,0.0090
1220.00,0.0090
1219.00,0.0090
1218.00,0.0090
1217.00,0.0090
1216.00,0.0090
1215.00,0.0091
1214.00,0.0092
1213.00,0.0092
1212.00,0.0093
1211.00,0.0093
1210.00,0.0093
1209.00,0.0094
1208.00,0.0094
1207.00,0.0095
1206.00,0.0095
1205.00,0.0096
1204.00,0.0097
1203.00,0.0097
1202.00,0.0098
1201.00,0.0098
1200.00,0.0099
1199.00,0.0098
1198.00,0.0098
1197.00,0.0098
1196.00,0.0098
1195.00,0.0098
1194.00,0.0098
1193.00,0.0098
1192.00,0.0099
1191.00,0.0099
1190.00,0.0099
1189.00,0.0100
1188.00,0.0100
1187.00,0.0101
1186.00,0.0102
1185.00,0.0103
1184.00,0.0103
1183.00,0.0103
1182.00,0.0103
1181.00,0.0104
1180.00,0.0104
1179.00,0.0104
1178.00,0.0105
1177.00,0.0106
1176.00,0.0106
1175.00,0.0106
1174.00,0.0106
1173.00,0.0105
1172.00,0.0105
1171.00,0.0105
1170.00,0.0105
1169.00,0.0106
1168.00,0.0107
1167.00,0.0108
1166.00,0.0108
1165.00,0.0108
1164.00,0.0108
1163.00,0.0108
1162.00,0.0108
1161.00,0.0108
1160.00,0.0107
1159.00,0.0107
1158.00,0.0107
1157.00,0.0108
1156.00,0.0108
1155.00,0.0109
1154.00,0.0109
1153.00,0.0109
1152.00,0.0110
1151.00,0.0110
1150.00,0.0111
1149.00,0.0111
1148.00,0.0111
1147.00,0.0112
1146.00,0.0112
1145.00,0.0112
1144.00,0.0113
1143.00,0.0113
1142.00,0.0113
1141.00,0.0114
1140.00,0.0115
1139.00,0.0115
1138.00,0.0116
1137.00,0.0116
1136.00,0.0116
1135.00,0.0116
1134.00,0.0117
1133.00,0.0117
1132.00,0.0117
1131.00,0.0118
1130.00,0.0118
1129.00,0.0118
1128.00,0.0119
1127.00,0.0119
1126.00,0.0120
1125.00,0.0120
1124.00,0.0121
1123.00,0.0122
1122.00,0.0122
1121.00,0.0123
1120.00,0.0124
1119.00,0.0125
1118.00,0.0125
1117.00,0.0126
1116.00,0.0128
1115.00,0.0128
1114.00,0.0127
1113.00,0.0127
1112.00,0.0127
1111.00,0.0127
1110.00,0.0128
1109.00,0.0129
1108.00,0.0130
1107.00,0.0131
1106.00,0.0132
1105.00,0.0133
1104.00,0.0134
1103.00,0.0134
1102.00,0.0135
1101.00,0.0135
1100.00,0.0135
1099.00,0.0135
1098.00,0.0135
1097.00,0.0136
1096.00,0.0138
1095.00,0.0138
1094.00,0.0139
1093.00,0.0139
1092.00,0.0140
1091.00,0.0141
1090.00,0.0142
1089.00,0.0143
1088.00,0.0143
1087.00,0.0144
1086.00,0.0144
1085.00,0.0144
1084.00,0.0144
1083.00,0.0145
1082.00,0.0145
1081.00,0.0145
1080.00,0.0145
1079.00,0.0146
1078.00,0.0146
1077.00,0.0147
1076.00,0.0148
1075.00,0.0150
1074.00,0.0151
1073.00,0.0151
1072.00,0.0151
1071.00,0.0151
1070.00,0.0152
1069.00,0.0152
1068.00,0.0154
1067.00,0.0155
1066.00,0.0156
1065.00,0.0157
1064.00,0.0158
1063.00,0.0160
1062.00,0.0161
1061.00,0.0161
1060.00,0.0161
1059.00,0.0161
1058.00,0.0161
1057.00,0.0161
1056.00,0.0162
1055.00,0.0163
1054.00,0.0163
1053.00,0.0163
1052.00,0.0164
1051.00,0.0165
1050.00,0.0166
1049.00,0.0166
1048.00,0.0166
1047.00,0.0166
1046.00,0.0165
1045.00,0.0165
1044.00,0.0165
1043.00,0.0165
1042.00,0.0165
1041.00,0.0165
1040.00,0.0166
1039.00,0.0166
1038.00,0.0166
1037.00,0.0167
1036.00,0.0167
1035.00,0.0167
1034.00,0.0167
1033.00,0.0165
1032.00,0.0165
1031.00,0.0165
1030.00,0.0166
1029.00,0.0166
1028.00,0.0166
1027.00,0.0165
1026.00,0.0164
1025.00,0.0164
1024.00,0.0163
1023.00,0.0162
1022.00,0.0162
1021.00,0.0161
1020.00,0.0161
1019.00,0.0161
1018.00,0.0161
1017.00,0.0160
1016.00,0.0160
1015.00,0.0159
1014.00,0.0158
1013.00,0.0157
1012.00,0.0156
1011.00,0.0156
1010.00,0.0156
1009.00,0.0155
1008.00,0.0154
1007.00,0.0152
1006.00,0.0151
1005.00,0.0150
1004.00,0.0150
1003.00,0.0150
1002.00,0.0149
1001.00,0.0149
1000.00,0.0148
999.00,0.0147
998.00,0.0145
997.00,0.0144
996.00,0.0143
995.00,0.0142
994.00,0.0141
993.00,0.0141
992.00,0.0141
991.00,0.0140
990.00,0.0139
989.00,0.0137
988.00,0.0136
987.00,0.0135
986.00,0.0134
985.00,0.0134
984.00,0.0134
983.00,0.0133
982.00,0.0133
981.00,0.0133
980.00,0.0132
979.00,0.0132
978.00,0.0130
977.00,0.0128
976.00,0.0127
975.00,0.0125
974.00,0.0124
973.00,0.0123
972.00,0.0122
971.00,0.0121
970.00,0.0121
969.00,0.0120
968.00,0.0119
967.00,0.0119
966.00,0.0118
965.00,0.0118
964.00,0.0117
963.00,0.0117
962.00,0.0116
961.00,0.0115
960.00,0.0115
959.00,0.0115
958.00,0.0115
957.00,0.0114
956.00,0.0114
955.00,0.0113
954.00,0.0112
953.00,0.0112
952.00,0.0112
951.00,0.0112
950.00,0.0112
949.00,0.0112
948.00,0.0112
947.00,0.0112
946.00,0.0112
945.00,0.0111
944.00,0.0111
943.00,0.0110
942.00,0.0110
941.00,0.0110
940.00,0.0110
939.00,0.0110
938.00,0.0110
937.00,0.0110
936.00,0.0111
935.00,0.0111
934.00,0.0111
933.00,0.0112
932.00,0.0112
931.00,0.0112
930.00,0.0112
929.00,0.0111
928.00,0.0111
927.00,0.0111
926.00,0.0111
925.00,0.0111
924.00,0.0111
923.00,0.0111
922.00,0.0111
921.00,0.0111
920.00,0.0111
919.00,0.0112
918.00,0.0114
917.00,0.0115
916.00,0.0116
915.00,0.0116
914.00,0.0115
913.00,0.0114
912.00,0.0113
911.00,0.0113
910.00,0.0113
909.00,0.0113
908.00,0.0112
907.00,0.0112
906.00,0.0112
905.00,0.0113
904.00,0.0113
903.00,0.0113
902.00,0.0112
901.00,0.0111
900.00,0.0110
899.00,0.0110
898.00,0.0111
897.00,0.0111
896.00,0.0111
895.00,0.0111
894.00,0.0112
893.00,0.0112
892.00,0.0113
891.00,0.0113
890.00,0.0113
889.00,0.0112
888.00,0.0111
887.00,0.0111
886.00,0.0111
885.00,0.0110
884.00,0.0110
883.00,0.0109
882.00,0.0109
881.00,0.0109
880.00,0.0110
879.00,0.0110
878.00,0.0111
877.00,0.0111
876.00,0.0111
875.00,0.0110
874.00,0.0109
873.00,0.0109
872.00,0.0109
871.00,0.0110
870.00,0.0110
869.00,0.0109
868.00,0.0109
867.00,0.0108
866.00,0.0107
865.00,0.0106
864.00,0.0106
863.00,0.0106
862.00,0.0106
861.00,0.0107
860.00,0.0107
859.00,0.0108
858.00,0.0108
857.00,0.0108
856.00,0.0108
855.00,0.0106
854.00,0.0105
853.00,0.0104
852.00,0.0104
851.00,0.0104
850.00,0.0105
849.00,0.0104
848.00,0.0104
847.00,0.0103
846.00,0.0102
845.00,0.0103
844.00,0.0104
843.00,0.0106
842.00,0.0106
841.00,0.0107
840.00,0.0108
839.00,0.0108
838.00,0.0108
837.00,0.0107
836.00,0.0107
835.00,0.0106
834.00,0.0105
833.00,0.0104
832.00,0.0105
831.00,0.0106
830.00,0.0108
829.00,0.0108
828.00,0.0108
827.00,0.0108
826.00,0.0108
825.00,0.0109
824.00,0.0110
823.00,0.0112
822.00,0.0113
821.00,0.0114
820.00,0.0115
819.00,0.0115
818.00,0.0116
817.00,0.0116
816.00,0.0116
815.00,0.0116
814.00,0.0116
813.00,0.0116
812.00,0.0116
811.00,0.0116
810.00,0.0115
809.00,0.0115
808.00,0.0115
807.00,0.0117
806.00,0.0120
805.00,0.0122
804.00,0.0124
803.00,0.0125
802.00,0.0125
801.00,0.0125
800.00,0.0124
799.00,0.0124
798.00,0.0124
797.00,0.0124
796.00,0.0124
795.00,0.0124
794.00,0.0124
793.00,0.0124
792.00,0.0124
791.00,0.0125
790.00,0.0127
789.00,0.0128
788.00,0.0128
787.00,0.0128
786.00,0.0126
785.00,0.0126
784.00,0.0125
783.00,0.0125
782.00,0.0126
781.00,0.0128
780.00,0.0130
779.00,0.0132
778.00,0.0132
777.00,0.0131
776.00,0.0129
775.00,0.0129
774.00,0.0129
773.00,0.0130
772.00,0.0130
771.00,0.0128
770.00,0.0127
769.00,0.0128
768.00,0.0129
767.00,0.0131
766.00,0.0132
765.00,0.0131
764.00,0.0129
763.00,0.0128
762.00,0.0127
761.00,0.0128
760.00,0.0130
759.00,0.0132
758.00,0.0133
757.00,0.0132
756.00,0.0131
755.00,0.0129
754.00,0.0127
753.00,0.0126
752.00,0.0126
751.00,0.0128
750.00,0.0130
749.00,0.0132
748.00,0.0133
747.00,0.0133
746.00,0.0133
745.00,0.0134
744.00,0.0134
743.00,0.0134
742.00,0.0134
741.00,0.0134
740.00,0.0132
739.00,0.0131
738.00,0.0131
737.00,0.0131
736.00,0.0132
735.00,0.0132
734.00,0.0132
733.00,0.0132
732.00,0.0133
731.00,0.0134
730.00,0.0136
729.00,0.0138
728.00,0.0138
727.00,0.0138
726.00,0.0138
725.00,0.0137
724.00,0.0137
723.00,0.0138
722.00,0.0139
721.00,0.0139
720.00,0.0138
719.00,0.0137
718.00,0.0137
717.00,0.0137
716.00,0.0138
715.00,0.0138
714.00,0.0138
713.00,0.0139
712.00,0.0139
711.00,0.0140
710.00,0.0141
709.00,0.0141
708.00,0.0142
707.00,0.0143
706.00,0.0143
705.00,0.0143
704.00,0.0142
703.00,0.0141
702.00,0.0141
701.00,0.0142
700.00,0.0143
699.00,0.0143
698.00,0.0142
697.00,0.0142
696.00,0.0141
695.00,0.0141
694.00,0.0141
693.00,0.0142
692.00,0.0144
691.00,0.0146
690.00,0.0148
689.00,0.0149
688.00,0.0151
687.00,0.0152
686.00,0.0154
685.00,0.0155
684.00,0.0154
683.00,0.0152
682.00,0.0150
681.00,0.0150
680.00,0.0151
679.00,0.0152
678.00,0.0151
677.00,0.0150
676.00,0.0150
675.00,0.0150
674.00,0.0151
673.00,0.0153
672.00,0.0156
671.00,0.0158
670.00,0.0160
669.00,0.0163
668.00,0.0167
667.00,0.0167
666.00,0.0165
665.00,0.0161
664.00,0.0157
663.00,0.0155
662.00,0.0154
661.00,0.0154
660.00,0.0155
659.00,0.0156
658.00,0.0157
657.00,0.0156
656.00,0.0155
655.00,0.0157
654.00,0.0156
653.00,0.0155
652.00,0.0155
651.00,0.0155
650.00,0.0157
