Created as New Dataset,Monday, April 03 2023
cm-1,A
4000.00,0.0046
3999.00,0.0046
3998.00,0.0046
3997.00,0.0045
3996.00,0.0045
3995.00,0.0044
3994.00,0.0044
3993.00,0.0044
3992.00,0.0045
3991.00,0.0045
3990.00,0.0045
3989.00,0.0045
3988.00,0.0045
3987.00,0.0045
3986.00,0.0045
3985.00,0.0045
3984.00,0.0044
3983.00,0.0044
3982.00,0.0044
3981.00,0.0044
3980.00,0.0045
3979.00,0.0045
3978.00,0.0045
3977.00,0.0045
3976.00,0.0044
3975.00,0.0044
3974.00,0.0044
3973.00,0.0044
3972.00,0.0044
3971.00,0.0044
3970.00,0.0044
3969.00,0.0044
3968.00,0.0044
3967.00,0.0044
3966.00,0.0044
3965.00,0.0044
3964.00,0.0044
3963.00,0.0045
3962.00,0.0045
3961.00,0.0045
3960.00,0.0045
3959.00,0.0045
3958.00,0.0045
3957.00,0.0044
3956.00,0.0043
3955.00,0.0043
3954.00,0.0043
3953.00,0.0043
3952.00,0.0043
3951.00,0.0044
3950.00,0.0044
3949.00,0.0044
3948.00,0.0044
3947.00,0.0044
3946.00,0.0044
3945.00,0.0044
3944.00,0.0043
3943.00,0.0043
3942.00,0.0043
3941.00,0.0043
3940.00,0.0043
3939.00,0.0043
3938.00,0.0043
3937.00,0.0044
3936.00,0.0044
3935.00,0.0045
3934.00,0.0045
3933.00,0.0045
3932.00,0.0045
3931.00,0.0044
3930.00,0.0043
3929.00,0.0043
3928.00,0.0043
3927.00,0.0042
3926.00,0.0042
3925.00,0.0042
3924.00,0.0042
3923.00,0.0043
3922.00,0.0043
3921.00,0.0044
3920.00,0.0044
3919.00,0.0044
3918.00,0.0044
3917.00,0.0044
3916.00,0.0043
3915.00,0.0043
3914.00,0.0042
3913.00,0.0042
3912.00,0.0042
3911.00,0.0042
3910.00,0.0042
3909.00,0.0042
3908.00,0.0043
3907.00,0.0044
3906.00,0.0046
3905.00,0.0047
3904.00,0.0049
3903.00,0.0049
3902.00,0.0049
3901.00,0.0048
3900.00,0.0046
3899.00,0.0045
3898.00,0.0044
3897.00,0.0044
3896.00,0.0044
3895.00,0.0044
3894.00,0.0044
3893.00,0.0043
3892.00,0.0043
3891.00,0.0043
3890.00,0.0043
3889.00,0.0044
3888.00,0.0044
3887.00,0.0045
3886.00,0.0045
3885.00,0.0044
3884.00,0.0044
3883.00,0.0044
3882.00,0.0043
3881.00,0.0042
3880.00,0.0042
3879.00,0.0042
3878.00,0.0043
3877.00,0.0043
3876.00,0.0043
3875.00,0.0042
3874.00,0.0042
3873.00,0.0043
3872.00,0.0044
3871.00,0.0044
3870.00,0.0044
3869.00,0.0044
3868.00,0.0044
3867.00,0.0045
3866.00,0.0045
3865.00,0.0045
3864.00,0.0044
3863.00,0.0044
3862.00,0.0044
3861.00,0.0044
3860.00,0.0044
3859.00,0.0044
3858.00,0.0043
3857.00,0.0043
3856.00,0.0044
3855.00,0.0044
3854.00,0.0044
3853.00,0.0043
3852.00,0.0043
3851.00,0.0043
3850.00,0.0043
3849.00,0.0043
3848.00,0.0043
3847.00,0.0043
3846.00,0.0042
3845.00,0.0042
3844.00,0.0043
3843.00,0.0043
3842.00,0.0043
3841.00,0.0044
3840.00,0.0044
3839.00,0.0044
3838.00,0.0043
3837.00,0.0043
3836.00,0.0043
3835.00,0.0043
3834.00,0.0043
3833.00,0.0043
3832.00,0.0043
3831.00,0.0044
3830.00,0.0044
3829.00,0.0043
3828.00,0.0043
3827.00,0.0042
3826.00,0.0042
3825.00,0.0043
3824.00,0.0045
3823.00,0.0047
3822.00,0.0047
3821.00,0.0046
3820.00,0.0045
3819.00,0.0045
3818.00,0.0044
3817.00,0.0043
3816.00,0.0042
3815.00,0.0041
3814.00,0.0040
3813.00,0.0041
3812.00,0.0040
3811.00,0.0040
3810.00,0.0040
3809.00,0.0041
3808.00,0.0042
3807.00,0.0043
3806.00,0.0043
3805.00,0.0044
3804.00,0.0044
3803.00,0.0044
3802.00,0.0043
3801.00,0.0042
3800.00,0.0042
3799.00,0.0042
3798.00,0.0042
3797.00,0.0041
3796.00,0.0041
3795.00,0.0041
3794.00,0.0041
3793.00,0.0040
3792.00,0.0039
3791.00,0.0039
3790.00,0.0039
3789.00,0.0039
3788.00,0.0039
3787.00,0.0039
3786.00,0.0039
3785.00,0.0039
3784.00,0.0039
3783.00,0.0039
3782.00,0.0039
3781.00,0.0039
3780.00,0.0039
3779.00,0.0039
3778.00,0.0039
3777.00,0.0039
3776.00,0.0040
3775.00,0.0040
3774.00,0.0040
3773.00,0.0040
3772.00,0.0041
3771.00,0.0041
3770.00,0.0041
3769.00,0.0041
3768.00,0.0041
3767.00,0.0041
3766.00,0.0041
3765.00,0.0040
3764.00,0.0041
3763.00,0.0042
3762.00,0.0042
3761.00,0.0043
3760.00,0.0042
3759.00,0.0042
3758.00,0.0042
3757.00,0.0043
3756.00,0.0043
3755.00,0.0044
3754.00,0.0045
3753.00,0.0046
3752.00,0.0048
3751.00,0.0048
3750.00,0.0048
3749.00,0.0048
3748.00,0.0047
3747.00,0.0046
3746.00,0.0046
3745.00,0.0045
3744.00,0.0044
3743.00,0.0044
3742.00,0.0045
3741.00,0.0046
3740.00,0.0046
3739.00,0.0047
3738.00,0.0047
3737.00,0.0047
3736.00,0.0047
3735.00,0.0046
3734.00,0.0046
3733.00,0.0047
3732.00,0.0046
3731.00,0.0045
3730.00,0.0045
3729.00,0.0045
3728.00,0.0045
3727.00,0.0045
3726.00,0.0044
3725.00,0.0043
3724.00,0.0042
3723.00,0.0041
3722.00,0.0041
3721.00,0.0040
3720.00,0.0039
3719.00,0.0039
3718.00,0.0040
3717.00,0.0040
3716.00,0.0041
3715.00,0.0042
3714.00,0.0043
3713.00,0.0043
3712.00,0.0042
3711.00,0.0042
3710.00,0.0042
3709.00,0.0042
3708.00,0.0042
3707.00,0.0042
3706.00,0.0041
3705.00,0.0040
3704.00,0.0040
3703.00,0.0039
3702.00,0.0038
3701.00,0.0038
3700.00,0.0039
3699.00,0.0039
3698.00,0.0039
3697.00,0.0039
3696.00,0.0039
3695.00,0.0039
3694.00,0.0039
3693.00,0.0040
3692.00,0.0040
3691.00,0.0040
3690.00,0.0040
3689.00,0.0040
3688.00,0.0041
3687.00,0.0041
3686.00,0.0041
3685.00,0.0041
3684.00,0.0041
3683.00,0.0040
3682.00,0.0040
3681.00,0.0041
3680.00,0.0041
3679.00,0.0041
3678.00,0.0042
3677.00,0.0043
3676.00,0.0044
3675.00,0.0044
3674.00,0.0044
3673.00,0.0045
3672.00,0.0046
3671.00,0.0045
3670.00,0.0043
3669.00,0.0042
3668.00,0.0041
3667.00,0.0041
3666.00,0.0041
3665.00,0.0041
3664.00,0.0041
3663.00,0.0042
3662.00,0.0042
3661.00,0.0042
3660.00,0.0042
3659.00,0.0043
3658.00,0.0043
3657.00,0.0044
3656.00,0.0044
3655.00,0.0044
3654.00,0.0045
3653.00,0.0045
3652.00,0.0046
3651.00,0.0047
3650.00,0.0048
3649.00,0.0048
3648.00,0.0047
3647.00,0.0046
3646.00,0.0046
3645.00,0.0046
3644.00,0.0045
3643.00,0.0045
3642.00,0.0044
3641.00,0.0044
3640.00,0.0044
3639.00,0.0044
3638.00,0.0044
3637.00,0.0044
3636.00,0.0045
3635.00,0.0045
3634.00,0.0046
3633.00,0.0047
3632.00,0.0048
3631.00,0.0051
3630.00,0.0052
3629.00,0.0053
3628.00,0.0053
3627.00,0.0052
3626.00,0.0051
3625.00,0.0050
3624.00,0.0049
3623.00,0.0049
3622.00,0.0049
3621.00,0.0049
3620.00,0.0050
3619.00,0.0050
3618.00,0.0051
3617.00,0.0051
3616.00,0.0050
3615.00,0.0050
3614.00,0.0051
3613.00,0.0051
3612.00,0.0053
3611.00,0.0054
3610.00,0.0054
3609.00,0.0053
3608.00,0.0052
3607.00,0.0051
3606.00,0.0050
3605.00,0.0050
3604.00,0.0050
3603.00,0.0050
3602.00,0.0049
3601.00,0.0049
3600.00,0.0049
3599.00,0.0049
3598.00,0.0050
3597.00,0.0050
3596.00,0.0050
3595.00,0.0050
3594.00,0.0050
3593.00,0.0051
3592.00,0.0051
3591.00,0.0051
3590.00,0.0051
3589.00,0.0051
3588.00,0.0049
3587.00,0.0049
3586.00,0.0048
3585.00,0.0048
3584.00,0.0048
3583.00,0.0048
3582.00,0.0048
3581.00,0.0048
3580.00,0.0049
3579.00,0.0049
3578.00,0.0049
3577.00,0.0048
3576.00,0.0048
3575.00,0.0048
3574.00,0.0049
3573.00,0.0049
3572.00,0.0050
3571.00,0.0050
3570.00,0.0051
3569.00,0.0051
3568.00,0.0052
3567.00,0.0052
3566.00,0.0052
3565.00,0.0052
3564.00,0.0052
3563.00,0.0051
3562.00,0.0050
3561.00,0.0050
3560.00,0.0050
3559.00,0.0050
3558.00,0.0050
3557.00,0.0051
3556.00,0.0051
3555.00,0.0051
3554.00,0.0051
3553.00,0.0051
3552.00,0.0051
3551.00,0.0051
3550.00,0.0051
3549.00,0.0052
3548.00,0.0052
3547.00,0.0053
3546.00,0.0053
3545.00,0.0053
3544.00,0.0053
3543.00,0.0053
3542.00,0.0052
3541.00,0.0052
3540.00,0.0051
3539.00,0.0051
3538.00,0.0051
3537.00,0.0051
3536.00,0.0051
3535.00,0.0052
3534.00,0.0052
3533.00,0.0052
3532.00,0.0052
3531.00,0.0052
3530.00,0.0051
3529.00,0.0052
3528.00,0.0052
3527.00,0.0053
3526.00,0.0054
3525.00,0.0054
3524.00,0.0053
3523.00,0.0052
3522.00,0.0052
3521.00,0.0051
3520.00,0.0051
3519.00,0.0052
3518.00,0.0052
3517.00,0.0053
3516.00,0.0053
3515.00,0.0053
3514.00,0.0053
3513.00,0.0052
3512.00,0.0052
3511.00,0.0051
3510.00,0.0052
3509.00,0.0052
3508.00,0.0053
3507.00,0.0053
3506.00,0.0053
3505.00,0.0053
3504.00,0.0053
3503.00,0.0054
3502.00,0.0054
3501.00,0.0054
3500.00,0.0054
3499.00,0.0053
3498.00,0.0053
3497.00,0.0053
3496.00,0.0054
3495.00,0.0054
3494.00,0.0054
3493.00,0.0053
3492.00,0.0053
3491.00,0.0053
3490.00,0.0054
3489.00,0.0054
3488.00,0.0054
3487.00,0.0054
3486.00,0.0054
3485.00,0.0054
3484.00,0.0054
3483.00,0.0053
3482.00,0.0053
3481.00,0.0053
3480.00,0.0054
3479.00,0.0054
3478.00,0.0054
3477.00,0.0054
3476.00,0.0054
3475.00,0.0054
3474.00,0.0054
3473.00,0.0054
3472.00,0.0054
3471.00,0.0054
3470.00,0.0053
3469.00,0.0053
3468.00,0.0054
3467.00,0.0054
3466.00,0.0054
3465.00,0.0054
3464.00,0.0054
3463.00,0.0054
3462.00,0.0054
3461.00,0.0054
3460.00,0.0054
3459.00,0.0054
3458.00,0.0054
3457.00,0.0054
3456.00,0.0054
3455.00,0.0054
3454.00,0.0054
3453.00,0.0054
3452.00,0.0055
3451.00,0.0055
3450.00,0.0055
3449.00,0.0055
3448.00,0.0055
3447.00,0.0055
3446.00,0.0055
3445.00,0.0055
3444.00,0.0055
3443.00,0.0055
3442.00,0.0055
3441.00,0.0055
3440.00,0.0055
3439.00,0.0055
3438.00,0.0055
3437.00,0.0055
3436.00,0.0055
3435.00,0.0055
3434.00,0.0055
3433.00,0.0056
3432.00,0.0056
3431.00,0.0056
3430.00,0.0055
3429.00,0.0055
3428.00,0.0054
3427.00,0.0055
3426.00,0.0055
3425.00,0.0055
3424.00,0.0055
3423.00,0.0055
3422.00,0.0056
3421.00,0.0056
3420.00,0.0056
3419.00,0.0056
3418.00,0.0055
3417.00,0.0055
3416.00,0.0055
3415.00,0.0055
3414.00,0.0055
3413.00,0.0055
3412.00,0.0055
3411.00,0.0055
3410.00,0.0054
3409.00,0.0054
3408.00,0.0054
3407.00,0.0055
3406.00,0.0055
3405.00,0.0054
3404.00,0.0054
3403.00,0.0054
3402.00,0.0055
3401.00,0.0055
3400.00,0.0055
3399.00,0.0055
3398.00,0.0055
3397.00,0.0055
3396.00,0.0055
3395.00,0.0055
3394.00,0.0056
3393.00,0.0056
3392.00,0.0056
3391.00,0.0055
3390.00,0.0055
3389.00,0.0055
3388.00,0.0055
3387.00,0.0055
3386.00,0.0055
3385.00,0.0055
3384.00,0.0055
3383.00,0.0055
3382.00,0.0055
3381.00,0.0055
3380.00,0.0055
3379.00,0.0055
3378.00,0.0056
3377.00,0.0056
3376.00,0.0056
3375.00,0.0056
3374.00,0.0056
3373.00,0.0055
3372.00,0.0055
3371.00,0.0054
3370.00,0.0054
3369.00,0.0054
3368.00,0.0054
3367.00,0.0054
3366.00,0.0054
3365.00,0.0055
3364.00,0.0055
3363.00,0.0055
3362.00,0.0055
3361.00,0.0055
3360.00,0.0055
3359.00,0.0055
3358.00,0.0055
3357.00,0.0055
3356.00,0.0056
3355.00,0.0056
3354.00,0.0056
3353.00,0.0056
3352.00,0.0056
3351.00,0.0056
3350.00,0.0056
3349.00,0.0056
3348.00,0.0055
3347.00,0.0054
3346.00,0.0054
3345.00,0.0053
3344.00,0.0053
3343.00,0.0053
3342.00,0.0054
3341.00,0.0054
3340.00,0.0055
3339.00,0.0055
3338.00,0.0055
3337.00,0.0055
3336.00,0.0055
3335.00,0.0055
3334.00,0.0055
3333.00,0.0055
3332.00,0.0055
3331.00,0.0055
3330.00,0.0055
3329.00,0.0055
3328.00,0.0055
3327.00,0.0055
3326.00,0.0055
3325.00,0.0054
3324.00,0.0054
3323.00,0.0054
3322.00,0.0053
3321.00,0.0053
3320.00,0.0054
3319.00,0.0055
3318.00,0.0055
3317.00,0.0055
3316.00,0.0055
3315.00,0.0055
3314.00,0.0055
3313.00,0.0055
3312.00,0.0055
3311.00,0.0055
3310.00,0.0055
3309.00,0.0055
3308.00,0.0055
3307.00,0.0055
3306.00,0.0055
3305.00,0.0055
3304.00,0.0055
3303.00,0.0055
3302.00,0.0055
3301.00,0.0055
3300.00,0.0056
3299.00,0.0055
3298.00,0.0055
3297.00,0.0055
3296.00,0.0054
3295.00,0.0054
3294.00,0.0055
3293.00,0.0055
3292.00,0.0055
3291.00,0.0055
3290.00,0.0055
3289.00,0.0054
3288.00,0.0054
3287.00,0.0054
3286.00,0.0054
3285.00,0.0054
3284.00,0.0054
3283.00,0.0054
3282.00,0.0054
3281.00,0.0054
3280.00,0.0054
3279.00,0.0054
3278.00,0.0054
3277.00,0.0054
3276.00,0.0055
3275.00,0.0055
3274.00,0.0055
3273.00,0.0055
3272.00,0.0055
3271.00,0.0055
3270.00,0.0055
3269.00,0.0055
3268.00,0.0055
3267.00,0.0054
3266.00,0.0054
3265.00,0.0054
3264.00,0.0054
3263.00,0.0053
3262.00,0.0053
3261.00,0.0053
3260.00,0.0053
3259.00,0.0053
3258.00,0.0053
3257.00,0.0054
3256.00,0.0054
3255.00,0.0054
3254.00,0.0054
3253.00,0.0054
3252.00,0.0054
3251.00,0.0054
3250.00,0.0054
3249.00,0.0055
3248.00,0.0055
3247.00,0.0055
3246.00,0.0055
3245.00,0.0055
3244.00,0.0054
3243.00,0.0054
3242.00,0.0054
3241.00,0.0054
3240.00,0.0055
3239.00,0.0055
3238.00,0.0055
3237.00,0.0055
3236.00,0.0055
3235.00,0.0055
3234.00,0.0055
3233.00,0.0054
3232.00,0.0054
3231.00,0.0055
3230.00,0.0055
3229.00,0.0055
3228.00,0.0055
3227.00,0.0055
3226.00,0.0054
3225.00,0.0054
3224.00,0.0054
3223.00,0.0054
3222.00,0.0054
3221.00,0.0055
3220.00,0.0055
3219.00,0.0055
3218.00,0.0055
3217.00,0.0054
3216.00,0.0054
3215.00,0.0054
3214.00,0.0054
3213.00,0.0054
3212.00,0.0054
3211.00,0.0054
3210.00,0.0053
3209.00,0.0053
3208.00,0.0053
3207.00,0.0053
3206.00,0.0053
3205.00,0.0054
3204.00,0.0054
3203.00,0.0054
3202.00,0.0054
3201.00,0.0054
3200.00,0.0054
3199.00,0.0054
3198.00,0.0054
3197.00,0.0054
3196.00,0.0053
3195.00,0.0053
3194.00,0.0053
3193.00,0.0053
3192.00,0.0053
3191.00,0.0054
3190.00,0.0054
3189.00,0.0054
3188.00,0.0054
3187.00,0.0054
3186.00,0.0053
3185.00,0.0053
3184.00,0.0053
3183.00,0.0053
3182.00,0.0053
3181.00,0.0053
3180.00,0.0053
3179.00,0.0053
3178.00,0.0053
3177.00,0.0053
3176.00,0.0053
3175.00,0.0053
3174.00,0.0053
3173.00,0.0053
3172.00,0.0053
3171.00,0.0053
3170.00,0.0053
3169.00,0.0053
3168.00,0.0053
3167.00,0.0053
3166.00,0.0053
3165.00,0.0053
3164.00,0.0053
3163.00,0.0053
3162.00,0.0053
3161.00,0.0053
3160.00,0.0053
3159.00,0.0053
3158.00,0.0053
3157.00,0.0053
3156.00,0.0052
3155.00,0.0052
3154.00,0.0052
3153.00,0.0052
3152.00,0.0052
3151.00,0.0052
3150.00,0.0053
3149.00,0.0053
3148.00,0.0053
3147.00,0.0053
3146.00,0.0053
3145.00,0.0053
3144.00,0.0053
3143.00,0.0052
3142.00,0.0052
3141.00,0.0052
3140.00,0.0053
3139.00,0.0053
3138.00,0.0053
3137.00,0.0053
3136.00,0.0053
3135.00,0.0053
3134.00,0.0053
3133.00,0.0053
3132.00,0.0053
3131.00,0.0053
3130.00,0.0053
3129.00,0.0053
3128.00,0.0052
3127.00,0.0052
3126.00,0.0052
3125.00,0.0052
3124.00,0.0052
3123.00,0.0052
3122.00,0.0052
3121.00,0.0052
3120.00,0.0052
3119.00,0.0052
3118.00,0.0053
3117.00,0.0053
3116.00,0.0052
3115.00,0.0052
3114.00,0.0052
3113.00,0.0052
3112.00,0.0051
3111.00,0.0051
3110.00,0.0051
3109.00,0.0051
3108.00,0.0051
3107.00,0.0051
3106.00,0.0051
3105.00,0.0051
3104.00,0.0051
3103.00,0.0051
3102.00,0.0051
3101.00,0.0052
3100.00,0.0052
3099.00,0.0051
3098.00,0.0051
3097.00,0.0051
3096.00,0.0051
3095.00,0.0052
3094.00,0.0052
3093.00,0.0051
3092.00,0.0051
3091.00,0.0051
3090.00,0.0052
3089.00,0.0052
3088.00,0.0052
3087.00,0.0052
3086.00,0.0052
3085.00,0.0052
3084.00,0.0052
3083.00,0.0052
3082.00,0.0052
3081.00,0.0052
3080.00,0.0052
3079.00,0.0052
3078.00,0.0052
3077.00,0.0052
3076.00,0.0051
3075.00,0.0051
3074.00,0.0051
3073.00,0.0051
3072.00,0.0051
3071.00,0.0051
3070.00,0.0051
3069.00,0.0051
3068.00,0.0051
3067.00,0.0052
3066.00,0.0052
3065.00,0.0052
3064.00,0.0052
3063.00,0.0052
3062.00,0.0051
3061.00,0.0051
3060.00,0.0051
3059.00,0.0051
3058.00,0.0051
3057.00,0.0051
3056.00,0.0051
3055.00,0.0051
3054.00,0.0051
3053.00,0.0051
3052.00,0.0050
3051.00,0.0050
3050.00,0.0050
3049.00,0.0050
3048.00,0.0051
3047.00,0.0051
3046.00,0.0051
3045.00,0.0051
3044.00,0.0051
3043.00,0.0050
3042.00,0.0050
3041.00,0.0049
3040.00,0.0049
3039.00,0.0050
3038.00,0.0050
3037.00,0.0050
3036.00,0.0050
3035.00,0.0050
3034.00,0.0050
3033.00,0.0050
3032.00,0.0050
3031.00,0.0050
3030.00,0.0050
3029.00,0.0050
3028.00,0.0050
3027.00,0.0050
3026.00,0.0050
3025.00,0.0050
3024.00,0.0050
3023.00,0.0050
3022.00,0.0049
3021.00,0.0049
3020.00,0.0049
3019.00,0.0049
3018.00,0.0049
3017.00,0.0050
3016.00,0.0050
3015.00,0.0050
3014.00,0.0050
3013.00,0.0050
3012.00,0.0050
3011.00,0.0050
3010.00,0.0050
3009.00,0.0049
3008.00,0.0049
3007.00,0.0049
3006.00,0.0049
3005.00,0.0049
3004.00,0.0050
3003.00,0.0050
3002.00,0.0050
3001.00,0.0050
3000.00,0.0050
2999.00,0.0050
2998.00,0.0049
2997.00,0.0049
2996.00,0.0049
2995.00,0.0049
2994.00,0.0049
2993.00,0.0050
2992.00,0.0049
2991.00,0.0049
2990.00,0.0049
2989.00,0.0048
2988.00,0.0048
2987.00,0.0048
2986.00,0.0049
2985.00,0.0049
2984.00,0.0049
2983.00,0.0049
2982.00,0.0049
2981.00,0.0048
2980.00,0.0048
2979.00,0.0048
2978.00,0.0048
2977.00,0.0048
2976.00,0.0047
2975.00,0.0047
2974.00,0.0047
2973.00,0.0047
2972.00,0.0046
2971.00,0.0046
2970.00,0.0045
2969.00,0.0045
2968.00,0.0044
2967.00,0.0044
2966.00,0.0043
2965.00,0.0042
2964.00,0.0042
2963.00,0.0041
2962.00,0.0041
2961.00,0.0040
2960.00,0.0040
2959.00,0.0039
2958.00,0.0039
2957.00,0.0039
2956.00,0.0039
2955.00,0.0039
2954.00,0.0039
2953.00,0.0040
2952.00,0.0040
2951.00,0.0040
2950.00,0.0040
2949.00,0.0040
2948.00,0.0039
2947.00,0.0039
2946.00,0.0039
2945.00,0.0039
2944.00,0.0039
2943.00,0.0038
2942.00,0.0038
2941.00,0.0037
2940.00,0.0037
2939.00,0.0036
2938.00,0.0035
2937.00,0.0035
2936.00,0.0033
2935.00,0.0032
2934.00,0.0031
2933.00,0.0031
2932.00,0.0030
2931.00,0.0029
2930.00,0.0028
2929.00,0.0027
2928.00,0.0026
2927.00,0.0025
2926.00,0.0024
2925.00,0.0024
2924.00,0.0023
2923.00,0.0023
2922.00,0.0023
2921.00,0.0023
2920.00,0.0023
2919.00,0.0022
2918.00,0.0022
2917.00,0.0022
2916.00,0.0023
2915.00,0.0024
2914.00,0.0027
2913.00,0.0029
2912.00,0.0030
2911.00,0.0032
2910.00,0.0032
2909.00,0.0033
2908.00,0.0034
2907.00,0.0034
2906.00,0.0035
2905.00,0.0035
2904.00,0.0036
2903.00,0.0036
2902.00,0.0037
2901.00,0.0037
2900.00,0.0038
2899.00,0.0038
2898.00,0.0039
2897.00,0.0039
2896.00,0.0039
2895.00,0.0039
2894.00,0.0039
2893.00,0.0039
2892.00,0.0039
2891.00,0.0040
2890.00,0.0040
2889.00,0.0040
2888.00,0.0040
2887.00,0.0040
2886.00,0.0040
2885.00,0.0040
2884.00,0.0040
2883.00,0.0040
2882.00,0.0040
2881.00,0.0040
2880.00,0.0040
2879.00,0.0040
2878.00,0.0040
2877.00,0.0040
2876.00,0.0039
2875.00,0.0039
2874.00,0.0039
2873.00,0.0039
2872.00,0.0039
2871.00,0.0039
2870.00,0.0039
2869.00,0.0039
2868.00,0.0038
2867.00,0.0038
2866.00,0.0037
2865.00,0.0037
2864.00,0.0036
2863.00,0.0036
2862.00,0.0036
2861.00,0.0035
2860.00,0.0035
2859.00,0.0034
2858.00,0.0033
2857.00,0.0032
2856.00,0.0031
2855.00,0.0031
2854.00,0.0030
2853.00,0.0030
2852.00,0.0031
2851.00,0.0031
2850.00,0.0031
2849.00,0.0031
2848.00,0.0032
2847.00,0.0033
2846.00,0.0034
2845.00,0.0035
2844.00,0.0036
2843.00,0.0037
2842.00,0.0038
2841.00,0.0038
2840.00,0.0038
2839.00,0.0039
2838.00,0.0039
2837.00,0.0039
2836.00,0.0039
2835.00,0.0039
2834.00,0.0040
2833.00,0.0040
2832.00,0.0040
2831.00,0.0040
2830.00,0.0040
2829.00,0.0040
2828.00,0.0040
2827.00,0.0040
2826.00,0.0040
2825.00,0.0040
2824.00,0.0040
2823.00,0.0040
2822.00,0.0040
2821.00,0.0040
2820.00,0.0040
2819.00,0.0040
2818.00,0.0040
2817.00,0.0040
2816.00,0.0040
2815.00,0.0040
2814.00,0.0040
2813.00,0.0040
2812.00,0.0040
2811.00,0.0040
2810.00,0.0040
2809.00,0.0040
2808.00,0.0040
2807.00,0.0040
2806.00,0.0040
2805.00,0.0040
2804.00,0.0040
2803.00,0.0040
2802.00,0.0040
2801.00,0.0040
2800.00,0.0040
2799.00,0.0040
2798.00,0.0040
2797.00,0.0040
2796.00,0.0040
2795.00,0.0039
2794.00,0.0039
2793.00,0.0039
2792.00,0.0039
2791.00,0.0039
2790.00,0.0039
2789.00,0.0039
2788.00,0.0039
2787.00,0.0039
2786.00,0.0039
2785.00,0.0039
2784.00,0.0039
2783.00,0.0039
2782.00,0.0039
2781.00,0.0039
2780.00,0.0038
2779.00,0.0038
2778.00,0.0038
2777.00,0.0038
2776.00,0.0038
2775.00,0.0038
2774.00,0.0038
2773.00,0.0038
2772.00,0.0038
2771.00,0.0038
2770.00,0.0038
2769.00,0.0038
2768.00,0.0038
2767.00,0.0038
2766.00,0.0038
2765.00,0.0037
2764.00,0.0037
2763.00,0.0038
2762.00,0.0038
2761.00,0.0038
2760.00,0.0038
2759.00,0.0038
2758.00,0.0038
2757.00,0.0037
2756.00,0.0037
2755.00,0.0037
2754.00,0.0037
2753.00,0.0037
2752.00,0.0036
2751.00,0.0037
2750.00,0.0037
2749.00,0.0037
2748.00,0.0037
2747.00,0.0037
2746.00,0.0037
2745.00,0.0037
2744.00,0.0036
2743.00,0.0036
2742.00,0.0036
2741.00,0.0036
2740.00,0.0036
2739.00,0.0036
2738.00,0.0036
2737.00,0.0036
2736.00,0.0036
2735.00,0.0036
2734.00,0.0035
2733.00,0.0035
2732.00,0.0035
2731.00,0.0035
2730.00,0.0035
2729.00,0.0035
2728.00,0.0035
2727.00,0.0035
2726.00,0.0035
2725.00,0.0035
2724.00,0.0035
2723.00,0.0035
2722.00,0.0035
2721.00,0.0035
2720.00,0.0036
2719.00,0.0036
2718.00,0.0036
2717.00,0.0035
2716.00,0.0035
2715.00,0.0035
2714.00,0.0035
2713.00,0.0035
2712.00,0.0035
2711.00,0.0035
2710.00,0.0034
2709.00,0.0034
2708.00,0.0034
2707.00,0.0034
2706.00,0.0034
2705.00,0.0034
2704.00,0.0034
2703.00,0.0034
2702.00,0.0034
2701.00,0.0034
2700.00,0.0034
2699.00,0.0034
2698.00,0.0034
2697.00,0.0034
2696.00,0.0034
2695.00,0.0034
2694.00,0.0034
2693.00,0.0034
2692.00,0.0034
2691.00,0.0034
2690.00,0.0034
2689.00,0.0034
2688.00,0.0033
2687.00,0.0033
2686.00,0.0033
2685.00,0.0033
2684.00,0.0033
2683.00,0.0033
2682.00,0.0034
2681.00,0.0034
2680.00,0.0034
2679.00,0.0034
2678.00,0.0033
2677.00,0.0033
2676.00,0.0033
2675.00,0.0033
2674.00,0.0033
2673.00,0.0033
2672.00,0.0033
2671.00,0.0033
2670.00,0.0033
2669.00,0.0033
2668.00,0.0033
2667.00,0.0033
2666.00,0.0034
2665.00,0.0034
2664.00,0.0034
2663.00,0.0034
2662.00,0.0034
2661.00,0.0034
2660.00,0.0034
2659.00,0.0033
2658.00,0.0033
2657.00,0.0034
2656.00,0.0034
2655.00,0.0034
2654.00,0.0034
2653.00,0.0035
2652.00,0.0034
2651.00,0.0034
2650.00,0.0034
2649.00,0.0033
2648.00,0.0033
2647.00,0.0033
2646.00,0.0033
2645.00,0.0033
2644.00,0.0034
2643.00,0.0034
2642.00,0.0034
2641.00,0.0034
2640.00,0.0034
2639.00,0.0033
2638.00,0.0033
2637.00,0.0033
2636.00,0.0033
2635.00,0.0033
2634.00,0.0033
2633.00,0.0033
2632.00,0.0033
2631.00,0.0033
2630.00,0.0033
2629.00,0.0033
2628.00,0.0033
2627.00,0.0033
2626.00,0.0033
2625.00,0.0033
2624.00,0.0032
2623.00,0.0032
2622.00,0.0032
2621.00,0.0032
2620.00,0.0033
2619.00,0.0033
2618.00,0.0032
2617.00,0.0032
2616.00,0.0032
2615.00,0.0032
2614.00,0.0032
2613.00,0.0032
2612.00,0.0032
2611.00,0.0032
2610.00,0.0032
2609.00,0.0032
2608.00,0.0032
2607.00,0.0033
2606.00,0.0033
2605.00,0.0032
2604.00,0.0032
2603.00,0.0032
2602.00,0.0032
2601.00,0.0032
2600.00,0.0032
2599.00,0.0032
2598.00,0.0032
2597.00,0.0032
2596.00,0.0032
2595.00,0.0031
2594.00,0.0031
2593.00,0.0031
2592.00,0.0031
2591.00,0.0032
2590.00,0.0032
2589.00,0.0032
2588.00,0.0032
2587.00,0.0031
2586.00,0.0031
2585.00,0.0031
2584.00,0.0031
2583.00,0.0032
2582.00,0.0032
2581.00,0.0033
2580.00,0.0033
2579.00,0.0032
2578.00,0.0032
2577.00,0.0032
2576.00,0.0031
2575.00,0.0031
2574.00,0.0031
2573.00,0.0031
2572.00,0.0032
2571.00,0.0032
2570.00,0.0032
2569.00,0.0031
2568.00,0.0031
2567.00,0.0031
2566.00,0.0032
2565.00,0.0032
2564.00,0.0032
2563.00,0.0032
2562.00,0.0031
2561.00,0.0030
2560.00,0.0030
2559.00,0.0030
2558.00,0.0030
2557.00,0.0030
2556.00,0.0031
2555.00,0.0031
2554.00,0.0031
2553.00,0.0031
2552.00,0.0030
2551.00,0.0030
2550.00,0.0030
2549.00,0.0030
2548.00,0.0030
2547.00,0.0030
2546.00,0.0030
2545.00,0.0030
2544.00,0.0030
2543.00,0.0030
2542.00,0.0030
2541.00,0.0030
2540.00,0.0030
2539.00,0.0030
2538.00,0.0031
2537.00,0.0031
2536.00,0.0031
2535.00,0.0030
2534.00,0.0030
2533.00,0.0029
2532.00,0.0029
2531.00,0.0029
2530.00,0.0029
2529.00,0.0029
2528.00,0.0029
2527.00,0.0030
2526.00,0.0030
2525.00,0.0030
2524.00,0.0030
2523.00,0.0030
2522.00,0.0030
2521.00,0.0029
2520.00,0.0029
2519.00,0.0029
2518.00,0.0029
2517.00,0.0029
2516.00,0.0029
2515.00,0.0029
2514.00,0.0029
2513.00,0.0030
2512.00,0.0030
2511.00,0.0030
2510.00,0.0029
2509.00,0.0029
2508.00,0.0028
2507.00,0.0028
2506.00,0.0028
2505.00,0.0029
2504.00,0.0029
2503.00,0.0029
2502.00,0.0029
2501.00,0.0029
2500.00,0.0029
2499.00,0.0029
2498.00,0.0029
2497.00,0.0029
2496.00,0.0030
2495.00,0.0030
2494.00,0.0030
2493.00,0.0030
2492.00,0.0030
2491.00,0.0030
2490.00,0.0030
2489.00,0.0030
2488.00,0.0030
2487.00,0.0029
2486.00,0.0029
2485.00,0.0029
2484.00,0.0029
2483.00,0.0029
2482.00,0.0029
2481.00,0.0029
2480.00,0.0029
2479.00,0.0029
2478.00,0.0029
2477.00,0.0029
2476.00,0.0029
2475.00,0.0029
2474.00,0.0029
2473.00,0.0029
2472.00,0.0029
2471.00,0.0028
2470.00,0.0028
2469.00,0.0028
2468.00,0.0028
2467.00,0.0028
2466.00,0.0028
2465.00,0.0028
2464.00,0.0029
2463.00,0.0029
2462.00,0.0030
2461.00,0.0030
2460.00,0.0030
2459.00,0.0030
2458.00,0.0029
2457.00,0.0029
2456.00,0.0029
2455.00,0.0029
2454.00,0.0029
2453.00,0.0029
2452.00,0.0030
2451.00,0.0030
2450.00,0.0030
2449.00,0.0029
2448.00,0.0029
2447.00,0.0028
2446.00,0.0028
2445.00,0.0028
2444.00,0.0028
2443.00,0.0028
2442.00,0.0029
2441.00,0.0029
2440.00,0.0029
2439.00,0.0029
2438.00,0.0028
2437.00,0.0028
2436.00,0.0027
2435.00,0.0027
2434.00,0.0027
2433.00,0.0027
2432.00,0.0027
2431.00,0.0027
2430.00,0.0027
2429.00,0.0027
2428.00,0.0028
2427.00,0.0028
2426.00,0.0028
2425.00,0.0028
2424.00,0.0028
2423.00,0.0028
2422.00,0.0027
2421.00,0.0027
2420.00,0.0027
2419.00,0.0027
2418.00,0.0028
2417.00,0.0028
2416.00,0.0028
2415.00,0.0028
2414.00,0.0028
2413.00,0.0028
2412.00,0.0028
2411.00,0.0027
2410.00,0.0027
2409.00,0.0026
2408.00,0.0026
2407.00,0.0027
2406.00,0.0027
2405.00,0.0027
2404.00,0.0027
2403.00,0.0027
2402.00,0.0027
2401.00,0.0027
2400.00,0.0026
2399.00,0.0026
2398.00,0.0026
2397.00,0.0026
2396.00,0.0026
2395.00,0.0026
2394.00,0.0026
2393.00,0.0026
2392.00,0.0026
2391.00,0.0026
2390.00,0.0026
2389.00,0.0026
2388.00,0.0026
2387.00,0.0027
2386.00,0.0027
2385.00,0.0027
2384.00,0.0027
2383.00,0.0027
2382.00,0.0027
2381.00,0.0027
2380.00,0.0027
2379.00,0.0026
2378.00,0.0025
2377.00,0.0025
2376.00,0.0025
2375.00,0.0025
2374.00,0.0026
2373.00,0.0026
2372.00,0.0026
2371.00,0.0026
2370.00,0.0026
2369.00,0.0026
2368.00,0.0025
2367.00,0.0024
2366.00,0.0024
2365.00,0.0023
2364.00,0.0023
2363.00,0.0024
2362.00,0.0026
2361.00,0.0028
2360.00,0.0029
2359.00,0.0030
2358.00,0.0028
2357.00,0.0027
2356.00,0.0026
2355.00,0.0025
2354.00,0.0025
2353.00,0.0025
2352.00,0.0025
2351.00,0.0025
2350.00,0.0025
2349.00,0.0025
2348.00,0.0025
2347.00,0.0025
2346.00,0.0026
2345.00,0.0026
2344.00,0.0026
2343.00,0.0025
2342.00,0.0025
2341.00,0.0025
2340.00,0.0024
2339.00,0.0024
2338.00,0.0024
2337.00,0.0024
2336.00,0.0025
2335.00,0.0025
2334.00,0.0026
2333.00,0.0026
2332.00,0.0026
2331.00,0.0026
2330.00,0.0025
2329.00,0.0025
2328.00,0.0026
2327.00,0.0027
2326.00,0.0028
2325.00,0.0028
2324.00,0.0027
2323.00,0.0026
2322.00,0.0025
2321.00,0.0025
2320.00,0.0025
2319.00,0.0025
2318.00,0.0026
2317.00,0.0026
2316.00,0.0027
2315.00,0.0026
2314.00,0.0026
2313.00,0.0025
2312.00,0.0025
2311.00,0.0025
2310.00,0.0026
2309.00,0.0026
2308.00,0.0026
2307.00,0.0026
2306.00,0.0025
2305.00,0.0025
2304.00,0.0024
2303.00,0.0024
2302.00,0.0024
2301.00,0.0024
2300.00,0.0025
2299.00,0.0025
2298.00,0.0025
2297.00,0.0025
2296.00,0.0026
2295.00,0.0026
2294.00,0.0026
2293.00,0.0027
2292.00,0.0027
2291.00,0.0027
2290.00,0.0027
2289.00,0.0027
2288.00,0.0027
2287.00,0.0027
2286.00,0.0027
2285.00,0.0026
2284.00,0.0026
2283.00,0.0025
2282.00,0.0025
2281.00,0.0026
2280.00,0.0026
2279.00,0.0026
2278.00,0.0025
2277.00,0.0024
2276.00,0.0024
2275.00,0.0024
2274.00,0.0024
2273.00,0.0024
2272.00,0.0024
2271.00,0.0024
2270.00,0.0024
2269.00,0.0024
2268.00,0.0024
2267.00,0.0024
2266.00,0.0025
2265.00,0.0025
2264.00,0.0025
2263.00,0.0025
2262.00,0.0025
2261.00,0.0025
2260.00,0.0025
2259.00,0.0026
2258.00,0.0025
2257.00,0.0024
2256.00,0.0023
2255.00,0.0022
2254.00,0.0022
2253.00,0.0023
2252.00,0.0023
2251.00,0.0024
2250.00,0.0023
2249.00,0.0023
2248.00,0.0022
2247.00,0.0022
2246.00,0.0022
2245.00,0.0022
2244.00,0.0022
2243.00,0.0022
2242.00,0.0022
2241.00,0.0022
2240.00,0.0023
2239.00,0.0023
2238.00,0.0023
2237.00,0.0023
2236.00,0.0022
2235.00,0.0022
2234.00,0.0022
2233.00,0.0022
2232.00,0.0023
2231.00,0.0024
2230.00,0.0024
2229.00,0.0024
2228.00,0.0024
2227.00,0.0023
2226.00,0.0022
2225.00,0.0022
2224.00,0.0022
2223.00,0.0022
2222.00,0.0022
2221.00,0.0022
2220.00,0.0022
2219.00,0.0022
2218.00,0.0022
2217.00,0.0022
2216.00,0.0023
2215.00,0.0024
2214.00,0.0024
2213.00,0.0024
2212.00,0.0023
2211.00,0.0022
2210.00,0.0021
2209.00,0.0021
2208.00,0.0021
2207.00,0.0021
2206.00,0.0021
2205.00,0.0021
2204.00,0.0021
2203.00,0.0022
2202.00,0.0023
2201.00,0.0024
2200.00,0.0024
2199.00,0.0025
2198.00,0.0026
2197.00,0.0026
2196.00,0.0025
2195.00,0.0025
2194.00,0.0024
2193.00,0.0023
2192.00,0.0022
2191.00,0.0021
2190.00,0.0021
2189.00,0.0022
2188.00,0.0024
2187.00,0.0025
2186.00,0.0026
2185.00,0.0025
2184.00,0.0024
2183.00,0.0022
2182.00,0.0021
2181.00,0.0022
2180.00,0.0023
2179.00,0.0023
2178.00,0.0022
2177.00,0.0021
2176.00,0.0020
2175.00,0.0019
2174.00,0.0020
2173.00,0.0022
2172.00,0.0024
2171.00,0.0025
2170.00,0.0027
2169.00,0.0028
2168.00,0.0027
2167.00,0.0026
2166.00,0.0024
2165.00,0.0024
2164.00,0.0024
2163.00,0.0025
2162.00,0.0025
2161.00,0.0023
2160.00,0.0020
2159.00,0.0019
2158.00,0.0018
2157.00,0.0018
2156.00,0.0018
2155.00,0.0017
2154.00,0.0017
2153.00,0.0017
2152.00,0.0017
2151.00,0.0017
2150.00,0.0016
2149.00,0.0015
2148.00,0.0015
2147.00,0.0015
2146.00,0.0016
2145.00,0.0016
2144.00,0.0017
2143.00,0.0017
2142.00,0.0017
2141.00,0.0017
2140.00,0.0018
2139.00,0.0018
2138.00,0.0017
2137.00,0.0016
2136.00,0.0015
2135.00,0.0014
2134.00,0.0013
2133.00,0.0013
2132.00,0.0014
2131.00,0.0014
2130.00,0.0015
2129.00,0.0015
2128.00,0.0015
2127.00,0.0015
2126.00,0.0015
2125.00,0.0015
2124.00,0.0015
2123.00,0.0015
2122.00,0.0016
2121.00,0.0016
2120.00,0.0017
2119.00,0.0018
2118.00,0.0018
2117.00,0.0018
2116.00,0.0017
2115.00,0.0017
2114.00,0.0017
2113.00,0.0018
2112.00,0.0018
2111.00,0.0019
2110.00,0.0018
2109.00,0.0018
2108.00,0.0018
2107.00,0.0018
2106.00,0.0018
2105.00,0.0017
2104.00,0.0017
2103.00,0.0017
2102.00,0.0017
2101.00,0.0017
2100.00,0.0017
2099.00,0.0016
2098.00,0.0016
2097.00,0.0016
2096.00,0.0016
2095.00,0.0016
2094.00,0.0016
2093.00,0.0016
2092.00,0.0016
2091.00,0.0016
2090.00,0.0016
2089.00,0.0016
2088.00,0.0015
2087.00,0.0015
2086.00,0.0015
2085.00,0.0015
2084.00,0.0016
2083.00,0.0016
2082.00,0.0016
2081.00,0.0016
2080.00,0.0016
2079.00,0.0016
2078.00,0.0016
2077.00,0.0016
2076.00,0.0016
2075.00,0.0016
2074.00,0.0015
2073.00,0.0015
2072.00,0.0014
2071.00,0.0013
2070.00,0.0013
2069.00,0.0014
2068.00,0.0014
2067.00,0.0014
2066.00,0.0014
2065.00,0.0014
2064.00,0.0014
2063.00,0.0013
2062.00,0.0013
2061.00,0.0013
2060.00,0.0013
2059.00,0.0014
2058.00,0.0015
2057.00,0.0015
2056.00,0.0015
2055.00,0.0015
2054.00,0.0016
2053.00,0.0017
2052.00,0.0018
2051.00,0.0017
2050.00,0.0016
2049.00,0.0015
2048.00,0.0013
2047.00,0.0013
2046.00,0.0013
2045.00,0.0014
2044.00,0.0015
2043.00,0.0015
2042.00,0.0015
2041.00,0.0014
2040.00,0.0014
2039.00,0.0014
2038.00,0.0016
2037.00,0.0018
2036.00,0.0020
2035.00,0.0020
2034.00,0.0020
2033.00,0.0018
2032.00,0.0016
2031.00,0.0015
2030.00,0.0015
2029.00,0.0015
2028.00,0.0015
2027.00,0.0014
2026.00,0.0013
2025.00,0.0012
2024.00,0.0012
2023.00,0.0013
2022.00,0.0014
2021.00,0.0015
2020.00,0.0016
2019.00,0.0016
2018.00,0.0016
2017.00,0.0016
2016.00,0.0015
2015.00,0.0015
2014.00,0.0015
2013.00,0.0016
2012.00,0.0016
2011.00,0.0017
2010.00,0.0017
2009.00,0.0016
2008.00,0.0015
2007.00,0.0014
2006.00,0.0013
2005.00,0.0012
2004.00,0.0012
2003.00,0.0012
2002.00,0.0012
2001.00,0.0012
2000.00,0.0013
1999.00,0.0014
1998.00,0.0016
1997.00,0.0016
1996.00,0.0016
1995.00,0.0016
1994.00,0.0015
1993.00,0.0016
1992.00,0.0017
1991.00,0.0019
1990.00,0.0020
1989.00,0.0019
1988.00,0.0016
1987.00,0.0014
1986.00,0.0013
1985.00,0.0014
1984.00,0.0016
1983.00,0.0017
1982.00,0.0018
1981.00,0.0018
1980.00,0.0018
1979.00,0.0017
1978.00,0.0016
1977.00,0.0014
1976.00,0.0012
1975.00,0.0011
1974.00,0.0011
1973.00,0.0012
1972.00,0.0013
1971.00,0.0013
1970.00,0.0013
1969.00,0.0013
1968.00,0.0013
1967.00,0.0012
1966.00,0.0012
1965.00,0.0013
1964.00,0.0015
1963.00,0.0016
1962.00,0.0015
1961.00,0.0013
1960.00,0.0011
1959.00,0.0010
1958.00,0.0009
1957.00,0.0010
1956.00,0.0011
1955.00,0.0011
1954.00,0.0011
1953.00,0.0011
1952.00,0.0010
1951.00,0.0009
1950.00,0.0009
1949.00,0.0009
1948.00,0.0010
1947.00,0.0010
1946.00,0.0011
1945.00,0.0011
1944.00,0.0011
1943.00,0.0011
1942.00,0.0010
1941.00,0.0010
1940.00,0.0009
1939.00,0.0008
1938.00,0.0007
1937.00,0.0007
1936.00,0.0007
1935.00,0.0009
1934.00,0.0010
1933.00,0.0010
1932.00,0.0010
1931.00,0.0010
1930.00,0.0009
1929.00,0.0009
1928.00,0.0008
1927.00,0.0008
1926.00,0.0009
1925.00,0.0009
1924.00,0.0009
1923.00,0.0008
1922.00,0.0008
1921.00,0.0008
1920.00,0.0008
1919.00,0.0008
1918.00,0.0007
1917.00,0.0007
1916.00,0.0006
1915.00,0.0006
1914.00,0.0006
1913.00,0.0006
1912.00,0.0006
1911.00,0.0007
1910.00,0.0007
1909.00,0.0007
1908.00,0.0007
1907.00,0.0007
1906.00,0.0007
1905.00,0.0007
1904.00,0.0006
1903.00,0.0006
1902.00,0.0006
1901.00,0.0006
1900.00,0.0006
1899.00,0.0006
1898.00,0.0006
1897.00,0.0005
1896.00,0.0005
1895.00,0.0004
1894.00,0.0004
1893.00,0.0004
1892.00,0.0004
1891.00,0.0005
1890.00,0.0005
1889.00,0.0005
1888.00,0.0005
1887.00,0.0005
1886.00,0.0006
1885.00,0.0006
1884.00,0.0005
1883.00,0.0005
1882.00,0.0005
1881.00,0.0004
1880.00,0.0004
1879.00,0.0004
1878.00,0.0005
1877.00,0.0005
1876.00,0.0005
1875.00,0.0006
1874.00,0.0006
1873.00,0.0006
1872.00,0.0006
1871.00,0.0006
1870.00,0.0006
1869.00,0.0006
1868.00,0.0006
1867.00,0.0006
1866.00,0.0006
1865.00,0.0006
1864.00,0.0005
1863.00,0.0005
1862.00,0.0005
1861.00,0.0004
1860.00,0.0003
1859.00,0.0003
1858.00,0.0003
1857.00,0.0004
1856.00,0.0004
1855.00,0.0004
1854.00,0.0004
1853.00,0.0004
1852.00,0.0004
1851.00,0.0004
1850.00,0.0004
1849.00,0.0004
1848.00,0.0004
1847.00,0.0004
1846.00,0.0005
1845.00,0.0004
1844.00,0.0004
1843.00,0.0003
1842.00,0.0002
1841.00,0.0003
1840.00,0.0003
1839.00,0.0003
1838.00,0.0003
1837.00,0.0003
1836.00,0.0002
1835.00,0.0002
1834.00,0.0002
1833.00,0.0003
1832.00,0.0003
1831.00,0.0002
1830.00,0.0002
1829.00,0.0001
1828.00,0.0000
1827.00,0.0000
1826.00,-0.0000
1825.00,-0.0000
1824.00,0.0000
1823.00,0.0001
1822.00,0.0001
1821.00,0.0002
1820.00,0.0001
1819.00,0.0001
1818.00,0.0001
1817.00,0.0001
1816.00,0.0000
1815.00,0.0000
1814.00,0.0000
1813.00,0.0000
1812.00,-0.0000
1811.00,-0.0001
1810.00,-0.0001
1809.00,-0.0000
1808.00,0.0001
1807.00,0.0001
1806.00,0.0001
1805.00,0.0002
1804.00,0.0001
1803.00,0.0001
1802.00,0.0001
1801.00,0.0001
1800.00,0.0001
1799.00,0.0001
1798.00,0.0002
1797.00,0.0003
1796.00,0.0003
1795.00,0.0003
1794.00,0.0003
1793.00,0.0003
1792.00,0.0002
1791.00,0.0001
1790.00,0.0001
1789.00,0.0001
1788.00,0.0001
1787.00,0.0002
1786.00,0.0002
1785.00,0.0002
1784.00,0.0001
1783.00,0.0001
1782.00,0.0001
1781.00,0.0001
1780.00,0.0001
1779.00,0.0001
1778.00,0.0002
1777.00,0.0002
1776.00,0.0003
1775.00,0.0004
1774.00,0.0004
1773.00,0.0004
1772.00,0.0003
1771.00,0.0003
1770.00,0.0003
1769.00,0.0004
1768.00,0.0004
1767.00,0.0004
1766.00,0.0004
1765.00,0.0004
1764.00,0.0004
1763.00,0.0004
1762.00,0.0004
1761.00,0.0003
1760.00,0.0003
1759.00,0.0003
1758.00,0.0003
1757.00,0.0003
1756.00,0.0003
1755.00,0.0003
1754.00,0.0004
1753.00,0.0005
1752.00,0.0006
1751.00,0.0006
1750.00,0.0005
1749.00,0.0004
1748.00,0.0003
1747.00,0.0003
1746.00,0.0003
1745.00,0.0003
1744.00,0.0002
1743.00,0.0002
1742.00,0.0003
1741.00,0.0004
1740.00,0.0005
1739.00,0.0005
1738.00,0.0006
1737.00,0.0007
1736.00,0.0010
1735.00,0.0012
1734.00,0.0012
1733.00,0.0011
1732.00,0.0009
1731.00,0.0008
1730.00,0.0007
1729.00,0.0007
1728.00,0.0008
1727.00,0.0009
1726.00,0.0010
1725.00,0.0010
1724.00,0.0011
1723.00,0.0011
1722.00,0.0011
1721.00,0.0011
1720.00,0.0011
1719.00,0.0011
1718.00,0.0013
1717.00,0.0015
1716.00,0.0014
1715.00,0.0014
1714.00,0.0014
1713.00,0.0014
1712.00,0.0014
1711.00,0.0014
1710.00,0.0014
1709.00,0.0014
1708.00,0.0015
1707.00,0.0015
1706.00,0.0015
1705.00,0.0016
1704.00,0.0016
1703.00,0.0018
1702.00,0.0019
1701.00,0.0021
1700.00,0.0022
1699.00,0.0022
1698.00,0.0022
1697.00,0.0021
1696.00,0.0019
1695.00,0.0018
1694.00,0.0018
1693.00,0.0019
1692.00,0.0019
1691.00,0.0020
1690.00,0.0020
1689.00,0.0021
1688.00,0.0021
1687.00,0.0020
1686.00,0.0019
1685.00,0.0017
1684.00,0.0016
1683.00,0.0018
1682.00,0.0020
1681.00,0.0021
1680.00,0.0021
1679.00,0.0021
1678.00,0.0022
1677.00,0.0023
1676.00,0.0023
1675.00,0.0024
1674.00,0.0024
1673.00,0.0024
1672.00,0.0024
1671.00,0.0024
1670.00,0.0024
1669.00,0.0023
1668.00,0.0023
1667.00,0.0023
1666.00,0.0024
1665.00,0.0024
1664.00,0.0024
1663.00,0.0025
1662.00,0.0025
1661.00,0.0025
1660.00,0.0026
1659.00,0.0026
1658.00,0.0026
1657.00,0.0026
1656.00,0.0025
1655.00,0.0024
1654.00,0.0025
1653.00,0.0025
1652.00,0.0026
1651.00,0.0028
1650.00,0.0028
1649.00,0.0028
1648.00,0.0029
1647.00,0.0030
1646.00,0.0031
1645.00,0.0031
1644.00,0.0031
1643.00,0.0031
1642.00,0.0031
1641.00,0.0031
1640.00,0.0031
1639.00,0.0032
1638.00,0.0032
1637.00,0.0033
1636.00,0.0032
1635.00,0.0031
1634.00,0.0032
1633.00,0.0033
1632.00,0.0033
1631.00,0.0034
1630.00,0.0034
1629.00,0.0033
1628.00,0.0033
1627.00,0.0033
1626.00,0.0034
1625.00,0.0035
1624.00,0.0036
1623.00,0.0036
1622.00,0.0036
1621.00,0.0036
1620.00,0.0036
1619.00,0.0036
1618.00,0.0037
1617.00,0.0037
1616.00,0.0037
1615.00,0.0037
1614.00,0.0037
1613.00,0.0038
1612.00,0.0038
1611.00,0.0039
1610.00,0.0039
1609.00,0.0039
1608.00,0.0039
1607.00,0.0039
1606.00,0.0039
1605.00,0.0039
1604.00,0.0039
1603.00,0.0039
1602.00,0.0039
1601.00,0.0039
1600.00,0.0039
1599.00,0.0039
1598.00,0.0040
1597.00,0.0040
1596.00,0.0040
1595.00,0.0040
1594.00,0.0040
1593.00,0.0040
1592.00,0.0040
1591.00,0.0040
1590.00,0.0040
1589.00,0.0040
1588.00,0.0040
1587.00,0.0040
1586.00,0.0040
1585.00,0.0039
1584.00,0.0039
1583.00,0.0040
1582.00,0.0040
1581.00,0.0040
1580.00,0.0040
1579.00,0.0040
1578.00,0.0040
1577.00,0.0040
1576.00,0.0041
1575.00,0.0041
1574.00,0.0041
1573.00,0.0040
1572.00,0.0040
1571.00,0.0040
1570.00,0.0041
1569.00,0.0041
1568.00,0.0041
1567.00,0.0042
1566.00,0.0042
1565.00,0.0041
1564.00,0.0041
1563.00,0.0041
1562.00,0.0039
1561.00,0.0036
1560.00,0.0035
1559.00,0.0039
1558.00,0.0040
1557.00,0.0042
1556.00,0.0043
1555.00,0.0043
1554.00,0.0042
1553.00,0.0041
1552.00,0.0039
1551.00,0.0038
1550.00,0.0038
1549.00,0.0038
1548.00,0.0038
1547.00,0.0038
1546.00,0.0039
1545.00,0.0039
1544.00,0.0040
1543.00,0.0041
1542.00,0.0040
1541.00,0.0038
1540.00,0.0033
1539.00,0.0029
1538.00,0.0029
1537.00,0.0031
1536.00,0.0032
1535.00,0.0032
1534.00,0.0032
1533.00,0.0032
1532.00,0.0032
1531.00,0.0033
1530.00,0.0034
1529.00,0.0035
1528.00,0.0035
1527.00,0.0036
1526.00,0.0037
1525.00,0.0037
1524.00,0.0037
1523.00,0.0037
1522.00,0.0037
1521.00,0.0036
1520.00,0.0034
1519.00,0.0032
1518.00,0.0032
1517.00,0.0032
1516.00,0.0032
1515.00,0.0032
1514.00,0.0034
1513.00,0.0034
1512.00,0.0035
1511.00,0.0034
1510.00,0.0033
1509.00,0.0032
1508.00,0.0032
1507.00,0.0030
1506.00,0.0028
1505.00,0.0030
1504.00,0.0031
1503.00,0.0032
1502.00,0.0031
1501.00,0.0031
1500.00,0.0030
1499.00,0.0030
1498.00,0.0030
1497.00,0.0030
1496.00,0.0030
1495.00,0.0029
1494.00,0.0030
1493.00,0.0031
1492.00,0.0031
1491.00,0.0031
1490.00,0.0030
1489.00,0.0029
1488.00,0.0027
1487.00,0.0027
1486.00,0.0027
1485.00,0.0027
1484.00,0.0027
1483.00,0.0027
1482.00,0.0027
1481.00,0.0027
1480.00,0.0027
1479.00,0.0027
1478.00,0.0026
1477.00,0.0026
1476.00,0.0027
1475.00,0.0029
1474.00,0.0031
1473.00,0.0032
1472.00,0.0029
1471.00,0.0027
1470.00,0.0025
1469.00,0.0025
1468.00,0.0024
1467.00,0.0023
1466.00,0.0023
1465.00,0.0023
1464.00,0.0023
1463.00,0.0023
1462.00,0.0023
1461.00,0.0023
1460.00,0.0023
1459.00,0.0024
1458.00,0.0026
1457.00,0.0027
1456.00,0.0026
1455.00,0.0025
1454.00,0.0024
1453.00,0.0024
1452.00,0.0025
1451.00,0.0026
1450.00,0.0026
1449.00,0.0026
1448.00,0.0027
1447.00,0.0027
1446.00,0.0027
1445.00,0.0027
1444.00,0.0026
1443.00,0.0026
1442.00,0.0027
1441.00,0.0027
1440.00,0.0027
1439.00,0.0028
1438.00,0.0028
1437.00,0.0028
1436.00,0.0028
1435.00,0.0029
1434.00,0.0029
1433.00,0.0029
1432.00,0.0029
1431.00,0.0029
1430.00,0.0028
1429.00,0.0028
1428.00,0.0028
1427.00,0.0028
1426.00,0.0028
1425.00,0.0028
1424.00,0.0028
1423.00,0.0028
1422.00,0.0028
1421.00,0.0028
1420.00,0.0028
1419.00,0.0028
1418.00,0.0028
1417.00,0.0028
1416.00,0.0028
1415.00,0.0028
1414.00,0.0029
1413.00,0.0029
1412.00,0.0029
1411.00,0.0029
1410.00,0.0029
1409.00,0.0029
1408.00,0.0029
1407.00,0.0029
1406.00,0.0028
1405.00,0.0028
1404.00,0.0029
1403.00,0.0029
1402.00,0.0029
1401.00,0.0029
1400.00,0.0030
1399.00,0.0030
1398.00,0.0030
1397.00,0.0031
1396.00,0.0031
1395.00,0.0031
1394.00,0.0031
1393.00,0.0031
1392.00,0.0031
1391.00,0.0031
1390.00,0.0031
1389.00,0.0032
1388.00,0.0032
1387.00,0.0032
1386.00,0.0032
1385.00,0.0032
1384.00,0.0032
1383.00,0.0032
1382.00,0.0032
1381.00,0.0032
1380.00,0.0032
1379.00,0.0032
1378.00,0.0032
1377.00,0.0032
1376.00,0.0032
1375.00,0.0032
1374.00,0.0032
1373.00,0.0032
1372.00,0.0033
1371.00,0.0033
1370.00,0.0032
1369.00,0.0032
1368.00,0.0032
1367.00,0.0032
1366.00,0.0032
1365.00,0.0032
1364.00,0.0031
1363.00,0.0031
1362.00,0.0030
1361.00,0.0030
1360.00,0.0031
1359.00,0.0031
1358.00,0.0031
1357.00,0.0031
1356.00,0.0031
1355.00,0.0030
1354.00,0.0030
1353.00,0.0030
1352.00,0.0030
1351.00,0.0030
1350.00,0.0030
1349.00,0.0030
1348.00,0.0031
1347.00,0.0031
1346.00,0.0031
1345.00,0.0031
1344.00,0.0030
1343.00,0.0030
1342.00,0.0030
1341.00,0.0030
1340.00,0.0030
1339.00,0.0030
1338.00,0.0030
1337.00,0.0029
1336.00,0.0029
1335.00,0.0029
1334.00,0.0029
1333.00,0.0029
1332.00,0.0029
1331.00,0.0029
1330.00,0.0029
1329.00,0.0029
1328.00,0.0029
1327.00,0.0028
1326.00,0.0028
1325.00,0.0028
1324.00,0.0028
1323.00,0.0029
1322.00,0.0029
1321.00,0.0029
1320.00,0.0029
1319.00,0.0029
1318.00,0.0029
1317.00,0.0029
1316.00,0.0029
1315.00,0.0029
1314.00,0.0029
1313.00,0.0029
1312.00,0.0029
1311.00,0.0029
1310.00,0.0029
1309.00,0.0029
1308.00,0.0029
1307.00,0.0029
1306.00,0.0029
1305.00,0.0030
1304.00,0.0030
1303.00,0.0030
1302.00,0.0030
1301.00,0.0030
1300.00,0.0030
1299.00,0.0029
1298.00,0.0029
1297.00,0.0029
1296.00,0.0030
1295.00,0.0030
1294.00,0.0030
1293.00,0.0030
1292.00,0.0030
1291.00,0.0030
1290.00,0.0030
1289.00,0.0030
1288.00,0.0030
1287.00,0.0030
1286.00,0.0030
1285.00,0.0030
1284.00,0.0030
1283.00,0.0030
1282.00,0.0030
1281.00,0.0030
1280.00,0.0030
1279.00,0.0031
1278.00,0.0031
1277.00,0.0031
1276.00,0.0031
1275.00,0.0031
1274.00,0.0031
1273.00,0.0031
1272.00,0.0031
1271.00,0.0031
1270.00,0.0031
1269.00,0.0031
1268.00,0.0031
1267.00,0.0031
1266.00,0.0031
1265.00,0.0031
1264.00,0.0031
1263.00,0.0031
1262.00,0.0030
1261.00,0.0030
1260.00,0.0030
1259.00,0.0031
1258.00,0.0031
1257.00,0.0031
1256.00,0.0031
1255.00,0.0031
1254.00,0.0031
1253.00,0.0031
1252.00,0.0031
1251.00,0.0031
1250.00,0.0031
1249.00,0.0031
1248.00,0.0031
1247.00,0.0032
1246.00,0.0032
1245.00,0.0032
1244.00,0.0032
1243.00,0.0032
1242.00,0.0032
1241.00,0.0032
1240.00,0.0033
1239.00,0.0033
1238.00,0.0033
1237.00,0.0033
1236.00,0.0033
1235.00,0.0033
1234.00,0.0034
1233.00,0.0034
1232.00,0.0034
1231.00,0.0034
1230.00,0.0034
1229.00,0.0034
1228.00,0.0035
1227.00,0.0035
1226.00,0.0036
1225.00,0.0036
1224.00,0.0036
1223.00,0.0037
1222.00,0.0037
1221.00,0.0037
1220.00,0.0037
1219.00,0.0037
1218.00,0.0036
1217.00,0.0036
1216.00,0.0036
1215.00,0.0036
1214.00,0.0037
1213.00,0.0038
1212.00,0.0038
1211.00,0.0038
1210.00,0.0038
1209.00,0.0038
1208.00,0.0039
1207.00,0.0039
1206.00,0.0039
1205.00,0.0039
1204.00,0.0040
1203.00,0.0040
1202.00,0.0040
1201.00,0.0040
1200.00,0.0040
1199.00,0.0039
1198.00,0.0039
1197.00,0.0039
1196.00,0.0040
1195.00,0.0040
1194.00,0.0040
1193.00,0.0040
1192.00,0.0039
1191.00,0.0039
1190.00,0.0039
1189.00,0.0039
1188.00,0.0039
1187.00,0.0039
1186.00,0.0040
1185.00,0.0040
1184.00,0.0041
1183.00,0.0041
1182.00,0.0042
1181.00,0.0043
1180.00,0.0043
1179.00,0.0043
1178.00,0.0043
1177.00,0.0043
1176.00,0.0043
1175.00,0.0042
1174.00,0.0042
1173.00,0.0042
1172.00,0.0042
1171.00,0.0042
1170.00,0.0042
1169.00,0.0042
1168.00,0.0042
1167.00,0.0042
1166.00,0.0042
1165.00,0.0041
1164.00,0.0042
1163.00,0.0042
1162.00,0.0043
1161.00,0.0043
1160.00,0.0043
1159.00,0.0044
1158.00,0.0044
1157.00,0.0044
1156.00,0.0045
1155.00,0.0045
1154.00,0.0044
1153.00,0.0044
1152.00,0.0044
1151.00,0.0044
1150.00,0.0044
1149.00,0.0044
1148.00,0.0044
1147.00,0.0044
1146.00,0.0044
1145.00,0.0045
1144.00,0.0045
1143.00,0.0045
1142.00,0.0045
1141.00,0.0046
1140.00,0.0046
1139.00,0.0046
1138.00,0.0045
1137.00,0.0044
1136.00,0.0044
1135.00,0.0044
1134.00,0.0045
1133.00,0.0045
1132.00,0.0045
1131.00,0.0045
1130.00,0.0045
1129.00,0.0044
1128.00,0.0044
1127.00,0.0044
1126.00,0.0044
1125.00,0.0044
1124.00,0.0045
1123.00,0.0045
1122.00,0.0046
1121.00,0.0047
1120.00,0.0047
1119.00,0.0047
1118.00,0.0046
1117.00,0.0047
1116.00,0.0047
1115.00,0.0047
1114.00,0.0047
1113.00,0.0046
1112.00,0.0046
1111.00,0.0046
1110.00,0.0047
1109.00,0.0048
1108.00,0.0048
1107.00,0.0048
1106.00,0.0048
1105.00,0.0048
1104.00,0.0048
1103.00,0.0048
1102.00,0.0049
1101.00,0.0049
1100.00,0.0049
1099.00,0.0049
1098.00,0.0048
1097.00,0.0049
1096.00,0.0049
1095.00,0.0050
1094.00,0.0050
1093.00,0.0050
1092.00,0.0050
1091.00,0.0050
1090.00,0.0051
1089.00,0.0052
1088.00,0.0053
1087.00,0.0053
1086.00,0.0052
1085.00,0.0051
1084.00,0.0051
1083.00,0.0051
1082.00,0.0051
1081.00,0.0051
1080.00,0.0051
1079.00,0.0052
1078.00,0.0053
1077.00,0.0055
1076.00,0.0055
1075.00,0.0056
1074.00,0.0056
1073.00,0.0056
1072.00,0.0056
1071.00,0.0056
1070.00,0.0056
1069.00,0.0057
1068.00,0.0057
1067.00,0.0058
1066.00,0.0059
1065.00,0.0059
1064.00,0.0059
1063.00,0.0058
1062.00,0.0058
1061.00,0.0058
1060.00,0.0058
1059.00,0.0058
1058.00,0.0058
1057.00,0.0058
1056.00,0.0058
1055.00,0.0058
1054.00,0.0059
1053.00,0.0059
1052.00,0.0060
1051.00,0.0060
1050.00,0.0061
1049.00,0.0061
1048.00,0.0061
1047.00,0.0061
1046.00,0.0061
1045.00,0.0060
1044.00,0.0060
1043.00,0.0059
1042.00,0.0060
1041.00,0.0060
1040.00,0.0061
1039.00,0.0061
1038.00,0.0061
1037.00,0.0062
1036.00,0.0062
1035.00,0.0062
1034.00,0.0061
1033.00,0.0060
1032.00,0.0060
1031.00,0.0061
1030.00,0.0062
1029.00,0.0062
1028.00,0.0062
1027.00,0.0061
1026.00,0.0060
1025.00,0.0060
1024.00,0.0060
1023.00,0.0061
1022.00,0.0061
1021.00,0.0062
1020.00,0.0061
1019.00,0.0061
1018.00,0.0060
1017.00,0.0060
1016.00,0.0060
1015.00,0.0061
1014.00,0.0061
1013.00,0.0061
1012.00,0.0061
1011.00,0.0061
1010.00,0.0061
1009.00,0.0061
1008.00,0.0061
1007.00,0.0060
1006.00,0.0059
1005.00,0.0058
1004.00,0.0057
1003.00,0.0057
1002.00,0.0058
1001.00,0.0059
1000.00,0.0059
999.00,0.0060
998.00,0.0060
997.00,0.0059
996.00,0.0059
995.00,0.0058
994.00,0.0057
993.00,0.0057
992.00,0.0057
991.00,0.0057
990.00,0.0057
989.00,0.0056
988.00,0.0055
987.00,0.0055
986.00,0.0055
985.00,0.0056
984.00,0.0056
983.00,0.0056
982.00,0.0056
981.00,0.0057
980.00,0.0058
979.00,0.0058
978.00,0.0058
977.00,0.0057
976.00,0.0056
975.00,0.0056
974.00,0.0056
973.00,0.0055
972.00,0.0054
971.00,0.0054
970.00,0.0053
969.00,0.0053
968.00,0.0052
967.00,0.0052
966.00,0.0052
965.00,0.0052
964.00,0.0052
963.00,0.0052
962.00,0.0052
961.00,0.0051
960.00,0.0051
959.00,0.0051
958.00,0.0050
957.00,0.0051
956.00,0.0051
955.00,0.0052
954.00,0.0052
953.00,0.0051
952.00,0.0050
951.00,0.0049
950.00,0.0049
949.00,0.0050
948.00,0.0050
947.00,0.0051
946.00,0.0050
945.00,0.0049
944.00,0.0049
943.00,0.0048
942.00,0.0048
941.00,0.0048
940.00,0.0049
939.00,0.0049
938.00,0.0050
937.00,0.0050
936.00,0.0050
935.00,0.0051
934.00,0.0051
933.00,0.0051
932.00,0.0050
931.00,0.0050
930.00,0.0049
929.00,0.0048
928.00,0.0048
927.00,0.0048
926.00,0.0049
925.00,0.0050
924.00,0.0050
923.00,0.0050
922.00,0.0049
921.00,0.0049
920.00,0.0048
919.00,0.0049
918.00,0.0050
917.00,0.0051
916.00,0.0052
915.00,0.0051
914.00,0.0050
913.00,0.0049
912.00,0.0048
911.00,0.0048
910.00,0.0049
909.00,0.0050
908.00,0.0050
907.00,0.0050
906.00,0.0050
905.00,0.0050
904.00,0.0051
903.00,0.0050
902.00,0.0049
901.00,0.0049
900.00,0.0049
899.00,0.0050
898.00,0.0051
897.00,0.0052
896.00,0.0052
895.00,0.0051
894.00,0.0050
893.00,0.0048
892.00,0.0048
891.00,0.0048
890.00,0.0048
889.00,0.0048
888.00,0.0049
887.00,0.0050
886.00,0.0050
885.00,0.0051
884.00,0.0050
883.00,0.0050
882.00,0.0049
881.00,0.0048
880.00,0.0048
879.00,0.0048
878.00,0.0049
877.00,0.0049
876.00,0.0049
875.00,0.0048
874.00,0.0048
873.00,0.0048
872.00,0.0049
871.00,0.0050
870.00,0.0050
869.00,0.0050
868.00,0.0048
867.00,0.0046
866.00,0.0044
865.00,0.0043
864.00,0.0044
863.00,0.0045
862.00,0.0046
861.00,0.0047
860.00,0.0048
859.00,0.0050
858.00,0.0051
857.00,0.0052
856.00,0.0051
855.00,0.0049
854.00,0.0048
853.00,0.0046
852.00,0.0045
851.00,0.0044
850.00,0.0044
849.00,0.0044
848.00,0.0045
847.00,0.0045
846.00,0.0045
845.00,0.0045
844.00,0.0046
843.00,0.0046
842.00,0.0045
841.00,0.0046
840.00,0.0047
839.00,0.0049
838.00,0.0050
837.00,0.0049
836.00,0.0048
835.00,0.0047
834.00,0.0046
833.00,0.0046
832.00,0.0047
831.00,0.0048
830.00,0.0049
829.00,0.0049
828.00,0.0048
827.00,0.0048
826.00,0.0047
825.00,0.0046
824.00,0.0046
823.00,0.0046
822.00,0.0048
821.00,0.0050
820.00,0.0051
819.00,0.0052
818.00,0.0051
817.00,0.0050
816.00,0.0049
815.00,0.0049
814.00,0.0049
813.00,0.0049
812.00,0.0048
811.00,0.0047
810.00,0.0046
809.00,0.0046
808.00,0.0046
807.00,0.0047
806.00,0.0048
805.00,0.0049
804.00,0.0050
803.00,0.0051
802.00,0.0051
801.00,0.0051
800.00,0.0051
799.00,0.0050
798.00,0.0049
797.00,0.0049
796.00,0.0050
795.00,0.0050
794.00,0.0051
793.00,0.0050
792.00,0.0049
791.00,0.0049
790.00,0.0050
789.00,0.0050
788.00,0.0050
787.00,0.0050
786.00,0.0050
785.00,0.0050
784.00,0.0051
783.00,0.0051
782.00,0.0051
781.00,0.0051
780.00,0.0051
779.00,0.0053
778.00,0.0054
777.00,0.0055
776.00,0.0055
775.00,0.0054
774.00,0.0054
773.00,0.0053
772.00,0.0052
771.00,0.0051
770.00,0.0051
769.00,0.0051
768.00,0.0053
767.00,0.0054
766.00,0.0056
765.00,0.0057
764.00,0.0056
763.00,0.0055
762.00,0.0054
761.00,0.0054
760.00,0.0055
759.00,0.0057
758.00,0.0059
757.00,0.0060
756.00,0.0059
755.00,0.0058
754.00,0.0056
753.00,0.0054
752.00,0.0053
751.00,0.0053
750.00,0.0054
749.00,0.0055
748.00,0.0056
747.00,0.0057
746.00,0.0058
745.00,0.0059
744.00,0.0060
743.00,0.0059
742.00,0.0058
741.00,0.0056
740.00,0.0055
739.00,0.0054
738.00,0.0054
737.00,0.0054
736.00,0.0054
735.00,0.0053
734.00,0.0052
733.00,0.0053
732.00,0.0055
731.00,0.0057
730.00,0.0059
729.00,0.0061
728.00,0.0061
727.00,0.0061
726.00,0.0061
725.00,0.0059
724.00,0.0058
723.00,0.0056
722.00,0.0055
721.00,0.0055
720.00,0.0056
719.00,0.0056
718.00,0.0056
717.00,0.0057
716.00,0.0056
715.00,0.0056
714.00,0.0057
713.00,0.0057
712.00,0.0058
711.00,0.0058
710.00,0.0059
709.00,0.0059
708.00,0.0059
707.00,0.0059
706.00,0.0059
705.00,0.0059
704.00,0.0059
703.00,0.0058
702.00,0.0058
701.00,0.0058
700.00,0.0058
699.00,0.0059
698.00,0.0060
697.00,0.0059
696.00,0.0059
695.00,0.0058
694.00,0.0059
693.00,0.0060
692.00,0.0060
691.00,0.0060
690.00,0.0060
689.00,0.0060
688.00,0.0060
687.00,0.0060
686.00,0.0061
685.00,0.0064
684.00,0.0065
683.00,0.0065
682.00,0.0065
681.00,0.0065
680.00,0.0066
679.00,0.0066
678.00,0.0064
677.00,0.0061
676.00,0.0060
675.00,0.0061
674.00,0.0064
673.00,0.0067
672.00,0.0068
671.00,0.0067
670.00,0.0064
669.00,0.0058
668.00,0.0052
667.00,0.0052
666.00,0.0056
665.00,0.0060
664.00,0.0062
663.00,0.0063
662.00,0.0061
661.00,0.0060
660.00,0.0060
659.00,0.0062
658.00,0.0064
657.00,0.0065
656.00,0.0071
655.00,0.0074
654.00,0.0080
653.00,0.0087
652.00,0.0091
651.00,0.0090
650.00,0.0086
