Created as New Dataset,
cm-1,A
4000.00,0.0164
3999.00,0.0164
3998.00,0.0163
3997.00,0.0165
3996.00,0.0165
3995.00,0.0165
3994.00,0.0166
3993.00,0.0166
3992.00,0.0166
3991.00,0.0166
3990.00,0.0165
3989.00,0.0165
3988.00,0.0165
3987.00,0.0165
3986.00,0.0165
3985.00,0.0165
3984.00,0.0165
3983.00,0.0165
3982.00,0.0165
3981.00,0.0165
3980.00,0.0165
3979.00,0.0165
3978.00,0.0166
3977.00,0.0166
3976.00,0.0166
3975.00,0.0166
3974.00,0.0166
3973.00,0.0166
3972.00,0.0166
3971.00,0.0166
3970.00,0.0166
3969.00,0.0165
3968.00,0.0165
3967.00,0.0164
3966.00,0.0164
3965.00,0.0165
3964.00,0.0165
3963.00,0.0165
3962.00,0.0166
3961.00,0.0166
3960.00,0.0166
3959.00,0.0166
3958.00,0.0166
3957.00,0.0165
3956.00,0.0165
3955.00,0.0165
3954.00,0.0166
3953.00,0.0166
3952.00,0.0167
3951.00,0.0167
3950.00,0.0167
3949.00,0.0167
3948.00,0.0167
3947.00,0.0167
3946.00,0.0168
3945.00,0.0169
3944.00,0.0170
3943.00,0.0169
3942.00,0.0168
3941.00,0.0168
3940.00,0.0168
3939.00,0.0167
3938.00,0.0166
3937.00,0.0166
3936.00,0.0166
3935.00,0.0166
3934.00,0.0167
3933.00,0.0167
3932.00,0.0168
3931.00,0.0168
3930.00,0.0169
3929.00,0.0169
3928.00,0.0169
3927.00,0.0169
3926.00,0.0169
3925.00,0.0168
3924.00,0.0167
3923.00,0.0167
3922.00,0.0168
3921.00,0.0168
3920.00,0.0167
3919.00,0.0167
3918.00,0.0167
3917.00,0.0167
3916.00,0.0167
3915.00,0.0166
3914.00,0.0166
3913.00,0.0165
3912.00,0.0165
3911.00,0.0164
3910.00,0.0165
3909.00,0.0165
3908.00,0.0167
3907.00,0.0168
3906.00,0.0168
3905.00,0.0167
3904.00,0.0167
3903.00,0.0168
3902.00,0.0171
3901.00,0.0173
3900.00,0.0173
3899.00,0.0172
3898.00,0.0170
3897.00,0.0169
3896.00,0.0169
3895.00,0.0168
3894.00,0.0168
3893.00,0.0168
3892.00,0.0167
3891.00,0.0165
3890.00,0.0164
3889.00,0.0166
3888.00,0.0168
3887.00,0.0169
3886.00,0.0168
3885.00,0.0167
3884.00,0.0170
3883.00,0.0174
3882.00,0.0176
3881.00,0.0174
3880.00,0.0170
3879.00,0.0168
3878.00,0.0168
3877.00,0.0170
3876.00,0.0171
3875.00,0.0170
3874.00,0.0168
3873.00,0.0168
3872.00,0.0170
3871.00,0.0171
3870.00,0.0169
3869.00,0.0167
3868.00,0.0168
3867.00,0.0170
3866.00,0.0171
3865.00,0.0169
3864.00,0.0167
3863.00,0.0168
3862.00,0.0168
3861.00,0.0168
3860.00,0.0166
3859.00,0.0165
3858.00,0.0164
3857.00,0.0165
3856.00,0.0167
3855.00,0.0168
3854.00,0.0167
3853.00,0.0166
3852.00,0.0167
3851.00,0.0169
3850.00,0.0169
3849.00,0.0167
3848.00,0.0165
3847.00,0.0164
3846.00,0.0163
3845.00,0.0164
3844.00,0.0163
3843.00,0.0163
3842.00,0.0164
3841.00,0.0166
3840.00,0.0167
3839.00,0.0167
3838.00,0.0167
3837.00,0.0167
3836.00,0.0167
3835.00,0.0167
3834.00,0.0167
3833.00,0.0167
3832.00,0.0165
3831.00,0.0164
3830.00,0.0164
3829.00,0.0166
3828.00,0.0166
3827.00,0.0164
3826.00,0.0162
3825.00,0.0162
3824.00,0.0164
3823.00,0.0166
3822.00,0.0165
3821.00,0.0162
3820.00,0.0162
3819.00,0.0164
3818.00,0.0168
3817.00,0.0168
3816.00,0.0164
3815.00,0.0162
3814.00,0.0162
3813.00,0.0163
3812.00,0.0162
3811.00,0.0160
3810.00,0.0159
3809.00,0.0160
3808.00,0.0159
3807.00,0.0158
3806.00,0.0157
3805.00,0.0160
3804.00,0.0164
3803.00,0.0166
3802.00,0.0165
3801.00,0.0163
3800.00,0.0164
3799.00,0.0166
3798.00,0.0167
3797.00,0.0165
3796.00,0.0163
3795.00,0.0162
3794.00,0.0163
3793.00,0.0163
3792.00,0.0162
3791.00,0.0161
3790.00,0.0160
3789.00,0.0160
3788.00,0.0160
3787.00,0.0160
3786.00,0.0160
3785.00,0.0160
3784.00,0.0160
3783.00,0.0161
3782.00,0.0162
3781.00,0.0163
3780.00,0.0162
3779.00,0.0160
3778.00,0.0160
3777.00,0.0160
3776.00,0.0160
3775.00,0.0159
3774.00,0.0158
3773.00,0.0157
3772.00,0.0158
3771.00,0.0158
3770.00,0.0157
3769.00,0.0158
3768.00,0.0160
3767.00,0.0161
3766.00,0.0161
3765.00,0.0160
3764.00,0.0159
3763.00,0.0160
3762.00,0.0162
3761.00,0.0162
3760.00,0.0161
3759.00,0.0160
3758.00,0.0160
3757.00,0.0159
3756.00,0.0159
3755.00,0.0158
3754.00,0.0157
3753.00,0.0154
3752.00,0.0151
3751.00,0.0150
3750.00,0.0152
3749.00,0.0154
3748.00,0.0158
3747.00,0.0162
3746.00,0.0165
3745.00,0.0163
3744.00,0.0159
3743.00,0.0158
3742.00,0.0159
3741.00,0.0159
3740.00,0.0157
3739.00,0.0155
3738.00,0.0155
3737.00,0.0155
3736.00,0.0156
3735.00,0.0157
3734.00,0.0159
3733.00,0.0159
3732.00,0.0158
3731.00,0.0155
3730.00,0.0154
3729.00,0.0155
3728.00,0.0155
3727.00,0.0154
3726.00,0.0154
3725.00,0.0156
3724.00,0.0158
3723.00,0.0158
3722.00,0.0157
3721.00,0.0157
3720.00,0.0156
3719.00,0.0155
3718.00,0.0154
3717.00,0.0152
3716.00,0.0152
3715.00,0.0153
3714.00,0.0153
3713.00,0.0153
3712.00,0.0152
3711.00,0.0153
3710.00,0.0155
3709.00,0.0156
3708.00,0.0156
3707.00,0.0154
3706.00,0.0153
3705.00,0.0153
3704.00,0.0154
3703.00,0.0155
3702.00,0.0156
3701.00,0.0156
3700.00,0.0155
3699.00,0.0155
3698.00,0.0155
3697.00,0.0154
3696.00,0.0153
3695.00,0.0153
3694.00,0.0154
3693.00,0.0155
3692.00,0.0156
3691.00,0.0156
3690.00,0.0157
3689.00,0.0158
3688.00,0.0157
3687.00,0.0156
3686.00,0.0157
3685.00,0.0156
3684.00,0.0155
3683.00,0.0154
3682.00,0.0153
3681.00,0.0152
3680.00,0.0151
3679.00,0.0151
3678.00,0.0153
3677.00,0.0157
3676.00,0.0159
3675.00,0.0159
3674.00,0.0159
3673.00,0.0162
3672.00,0.0163
3671.00,0.0162
3670.00,0.0160
3669.00,0.0160
3668.00,0.0162
3667.00,0.0162
3666.00,0.0162
3665.00,0.0160
3664.00,0.0159
3663.00,0.0159
3662.00,0.0159
3661.00,0.0159
3660.00,0.0159
3659.00,0.0161
3658.00,0.0163
3657.00,0.0164
3656.00,0.0165
3655.00,0.0167
3654.00,0.0170
3653.00,0.0173
3652.00,0.0174
3651.00,0.0172
3650.00,0.0173
3649.00,0.0179
3648.00,0.0186
3647.00,0.0188
3646.00,0.0186
3645.00,0.0184
3644.00,0.0182
3643.00,0.0181
3642.00,0.0180
3641.00,0.0180
3640.00,0.0181
3639.00,0.0182
3638.00,0.0182
3637.00,0.0183
3636.00,0.0185
3635.00,0.0185
3634.00,0.0184
3633.00,0.0183
3632.00,0.0185
3631.00,0.0188
3630.00,0.0191
3629.00,0.0193
3628.00,0.0196
3627.00,0.0198
3626.00,0.0199
3625.00,0.0198
3624.00,0.0197
3623.00,0.0197
3622.00,0.0198
3621.00,0.0201
3620.00,0.0204
3619.00,0.0207
3618.00,0.0209
3617.00,0.0210
3616.00,0.0210
3615.00,0.0209
3614.00,0.0208
3613.00,0.0207
3612.00,0.0207
3611.00,0.0209
3610.00,0.0210
3609.00,0.0212
3608.00,0.0213
3607.00,0.0214
3606.00,0.0215
3605.00,0.0215
3604.00,0.0215
3603.00,0.0215
3602.00,0.0215
3601.00,0.0216
3600.00,0.0216
3599.00,0.0217
3598.00,0.0219
3597.00,0.0220
3596.00,0.0222
3595.00,0.0223
3594.00,0.0223
3593.00,0.0223
3592.00,0.0222
3591.00,0.0223
3590.00,0.0224
3589.00,0.0226
3588.00,0.0229
3587.00,0.0231
3586.00,0.0233
3585.00,0.0234
3584.00,0.0233
3583.00,0.0232
3582.00,0.0231
3581.00,0.0231
3580.00,0.0232
3579.00,0.0233
3578.00,0.0233
3577.00,0.0233
3576.00,0.0233
3575.00,0.0233
3574.00,0.0234
3573.00,0.0234
3572.00,0.0235
3571.00,0.0236
3570.00,0.0239
3569.00,0.0241
3568.00,0.0245
3567.00,0.0248
3566.00,0.0251
3565.00,0.0252
3564.00,0.0252
3563.00,0.0250
3562.00,0.0248
3561.00,0.0247
3560.00,0.0246
3559.00,0.0245
3558.00,0.0245
3557.00,0.0245
3556.00,0.0244
3555.00,0.0245
3554.00,0.0245
3553.00,0.0247
3552.00,0.0248
3551.00,0.0249
3550.00,0.0251
3549.00,0.0251
3548.00,0.0252
3547.00,0.0254
3546.00,0.0255
3545.00,0.0256
3544.00,0.0256
3543.00,0.0256
3542.00,0.0255
3541.00,0.0255
3540.00,0.0255
3539.00,0.0256
3538.00,0.0256
3537.00,0.0257
3536.00,0.0257
3535.00,0.0258
3534.00,0.0258
3533.00,0.0259
3532.00,0.0259
3531.00,0.0259
3530.00,0.0260
3529.00,0.0260
3528.00,0.0262
3527.00,0.0263
3526.00,0.0265
3525.00,0.0266
3524.00,0.0267
3523.00,0.0268
3522.00,0.0268
3521.00,0.0267
3520.00,0.0267
3519.00,0.0267
3518.00,0.0267
3517.00,0.0267
3516.00,0.0268
3515.00,0.0268
3514.00,0.0269
3513.00,0.0269
3512.00,0.0270
3511.00,0.0271
3510.00,0.0272
3509.00,0.0273
3508.00,0.0273
3507.00,0.0273
3506.00,0.0274
3505.00,0.0274
3504.00,0.0274
3503.00,0.0275
3502.00,0.0277
3501.00,0.0278
3500.00,0.0279
3499.00,0.0279
3498.00,0.0279
3497.00,0.0279
3496.00,0.0279
3495.00,0.0279
3494.00,0.0279
3493.00,0.0279
3492.00,0.0279
3491.00,0.0279
3490.00,0.0279
3489.00,0.0279
3488.00,0.0280
3487.00,0.0282
3486.00,0.0283
3485.00,0.0284
3484.00,0.0285
3483.00,0.0286
3482.00,0.0286
3481.00,0.0286
3480.00,0.0287
3479.00,0.0287
3478.00,0.0288
3477.00,0.0288
3476.00,0.0288
3475.00,0.0289
3474.00,0.0289
3473.00,0.0290
3472.00,0.0291
3471.00,0.0291
3470.00,0.0291
3469.00,0.0291
3468.00,0.0292
3467.00,0.0292
3466.00,0.0292
3465.00,0.0293
3464.00,0.0293
3463.00,0.0294
3462.00,0.0294
3461.00,0.0294
3460.00,0.0294
3459.00,0.0295
3458.00,0.0295
3457.00,0.0296
3456.00,0.0297
3455.00,0.0297
3454.00,0.0298
3453.00,0.0299
3452.00,0.0299
3451.00,0.0299
3450.00,0.0299
3449.00,0.0300
3448.00,0.0301
3447.00,0.0301
3446.00,0.0302
3445.00,0.0302
3444.00,0.0302
3443.00,0.0303
3442.00,0.0303
3441.00,0.0303
3440.00,0.0304
3439.00,0.0304
3438.00,0.0304
3437.00,0.0304
3436.00,0.0304
3435.00,0.0305
3434.00,0.0305
3433.00,0.0306
3432.00,0.0307
3431.00,0.0307
3430.00,0.0307
3429.00,0.0307
3428.00,0.0307
3427.00,0.0308
3426.00,0.0309
3425.00,0.0309
3424.00,0.0310
3423.00,0.0310
3422.00,0.0310
3421.00,0.0310
3420.00,0.0311
3419.00,0.0311
3418.00,0.0312
3417.00,0.0312
3416.00,0.0312
3415.00,0.0312
3414.00,0.0313
3413.00,0.0313
3412.00,0.0314
3411.00,0.0315
3410.00,0.0315
3409.00,0.0315
3408.00,0.0315
3407.00,0.0316
3406.00,0.0317
3405.00,0.0317
3404.00,0.0318
3403.00,0.0319
3402.00,0.0319
3401.00,0.0319
3400.00,0.0319
3399.00,0.0318
3398.00,0.0318
3397.00,0.0319
3396.00,0.0319
3395.00,0.0319
3394.00,0.0320
3393.00,0.0320
3392.00,0.0321
3391.00,0.0321
3390.00,0.0321
3389.00,0.0321
3388.00,0.0321
3387.00,0.0322
3386.00,0.0322
3385.00,0.0323
3384.00,0.0324
3383.00,0.0323
3382.00,0.0323
3381.00,0.0323
3380.00,0.0323
3379.00,0.0323
3378.00,0.0324
3377.00,0.0324
3376.00,0.0325
3375.00,0.0325
3374.00,0.0326
3373.00,0.0326
3372.00,0.0326
3371.00,0.0325
3370.00,0.0325
3369.00,0.0325
3368.00,0.0325
3367.00,0.0326
3366.00,0.0327
3365.00,0.0327
3364.00,0.0328
3363.00,0.0329
3362.00,0.0329
3361.00,0.0329
3360.00,0.0329
3359.00,0.0329
3358.00,0.0329
3357.00,0.0329
3356.00,0.0329
3355.00,0.0329
3354.00,0.0329
3353.00,0.0329
3352.00,0.0329
3351.00,0.0329
3350.00,0.0329
3349.00,0.0329
3348.00,0.0330
3347.00,0.0330
3346.00,0.0330
3345.00,0.0331
3344.00,0.0331
3343.00,0.0332
3342.00,0.0332
3341.00,0.0332
3340.00,0.0332
3339.00,0.0333
3338.00,0.0333
3337.00,0.0333
3336.00,0.0333
3335.00,0.0333
3334.00,0.0333
3333.00,0.0333
3332.00,0.0334
3331.00,0.0334
3330.00,0.0334
3329.00,0.0334
3328.00,0.0334
3327.00,0.0334
3326.00,0.0335
3325.00,0.0335
3324.00,0.0336
3323.00,0.0336
3322.00,0.0336
3321.00,0.0335
3320.00,0.0335
3319.00,0.0334
3318.00,0.0334
3317.00,0.0334
3316.00,0.0335
3315.00,0.0335
3314.00,0.0335
3313.00,0.0335
3312.00,0.0335
3311.00,0.0336
3310.00,0.0336
3309.00,0.0337
3308.00,0.0337
3307.00,0.0337
3306.00,0.0338
3305.00,0.0338
3304.00,0.0339
3303.00,0.0339
3302.00,0.0339
3301.00,0.0338
3300.00,0.0338
3299.00,0.0337
3298.00,0.0337
3297.00,0.0337
3296.00,0.0337
3295.00,0.0338
3294.00,0.0338
3293.00,0.0338
3292.00,0.0338
3291.00,0.0338
3290.00,0.0338
3289.00,0.0338
3288.00,0.0338
3287.00,0.0338
3286.00,0.0339
3285.00,0.0339
3284.00,0.0340
3283.00,0.0340
3282.00,0.0340
3281.00,0.0339
3280.00,0.0339
3279.00,0.0339
3278.00,0.0340
3277.00,0.0340
3276.00,0.0340
3275.00,0.0341
3274.00,0.0341
3273.00,0.0342
3272.00,0.0342
3271.00,0.0341
3270.00,0.0341
3269.00,0.0341
3268.00,0.0341
3267.00,0.0341
3266.00,0.0341
3265.00,0.0341
3264.00,0.0341
3263.00,0.0341
3262.00,0.0342
3261.00,0.0342
3260.00,0.0342
3259.00,0.0342
3258.00,0.0342
3257.00,0.0343
3256.00,0.0343
3255.00,0.0343
3254.00,0.0343
3253.00,0.0343
3252.00,0.0342
3251.00,0.0342
3250.00,0.0342
3249.00,0.0343
3248.00,0.0343
3247.00,0.0344
3246.00,0.0345
3245.00,0.0345
3244.00,0.0344
3243.00,0.0344
3242.00,0.0343
3241.00,0.0343
3240.00,0.0344
3239.00,0.0344
3238.00,0.0345
3237.00,0.0345
3236.00,0.0345
3235.00,0.0345
3234.00,0.0345
3233.00,0.0346
3232.00,0.0346
3231.00,0.0347
3230.00,0.0347
3229.00,0.0348
3228.00,0.0347
3227.00,0.0347
3226.00,0.0347
3225.00,0.0346
3224.00,0.0346
3223.00,0.0346
3222.00,0.0347
3221.00,0.0347
3220.00,0.0346
3219.00,0.0346
3218.00,0.0346
3217.00,0.0346
3216.00,0.0346
3215.00,0.0346
3214.00,0.0346
3213.00,0.0347
3212.00,0.0347
3211.00,0.0348
3210.00,0.0348
3209.00,0.0347
3208.00,0.0347
3207.00,0.0347
3206.00,0.0347
3205.00,0.0347
3204.00,0.0347
3203.00,0.0347
3202.00,0.0347
3201.00,0.0348
3200.00,0.0347
3199.00,0.0347
3198.00,0.0347
3197.00,0.0347
3196.00,0.0347
3195.00,0.0347
3194.00,0.0347
3193.00,0.0347
3192.00,0.0346
3191.00,0.0346
3190.00,0.0346
3189.00,0.0346
3188.00,0.0346
3187.00,0.0346
3186.00,0.0346
3185.00,0.0346
3184.00,0.0346
3183.00,0.0346
3182.00,0.0346
3181.00,0.0346
3180.00,0.0346
3179.00,0.0345
3178.00,0.0345
3177.00,0.0345
3176.00,0.0345
3175.00,0.0345
3174.00,0.0345
3173.00,0.0345
3172.00,0.0345
3171.00,0.0345
3170.00,0.0345
3169.00,0.0344
3168.00,0.0344
3167.00,0.0344
3166.00,0.0345
3165.00,0.0345
3164.00,0.0345
3163.00,0.0345
3162.00,0.0344
3161.00,0.0344
3160.00,0.0344
3159.00,0.0344
3158.00,0.0344
3157.00,0.0344
3156.00,0.0343
3155.00,0.0343
3154.00,0.0343
3153.00,0.0343
3152.00,0.0342
3151.00,0.0342
3150.00,0.0342
3149.00,0.0342
3148.00,0.0342
3147.00,0.0342
3146.00,0.0342
3145.00,0.0342
3144.00,0.0342
3143.00,0.0342
3142.00,0.0342
3141.00,0.0342
3140.00,0.0342
3139.00,0.0341
3138.00,0.0341
3137.00,0.0341
3136.00,0.0341
3135.00,0.0341
3134.00,0.0340
3133.00,0.0340
3132.00,0.0340
3131.00,0.0340
3130.00,0.0340
3129.00,0.0341
3128.00,0.0341
3127.00,0.0340
3126.00,0.0340
3125.00,0.0340
3124.00,0.0340
3123.00,0.0340
3122.00,0.0340
3121.00,0.0340
3120.00,0.0340
3119.00,0.0340
3118.00,0.0340
3117.00,0.0340
3116.00,0.0340
3115.00,0.0340
3114.00,0.0340
3113.00,0.0340
3112.00,0.0339
3111.00,0.0339
3110.00,0.0338
3109.00,0.0338
3108.00,0.0338
3107.00,0.0338
3106.00,0.0338
3105.00,0.0338
3104.00,0.0338
3103.00,0.0338
3102.00,0.0338
3101.00,0.0338
3100.00,0.0338
3099.00,0.0338
3098.00,0.0338
3097.00,0.0338
3096.00,0.0338
3095.00,0.0338
3094.00,0.0338
3093.00,0.0338
3092.00,0.0337
3091.00,0.0337
3090.00,0.0337
3089.00,0.0337
3088.00,0.0337
3087.00,0.0337
3086.00,0.0337
3085.00,0.0336
3084.00,0.0336
3083.00,0.0335
3082.00,0.0335
3081.00,0.0335
3080.00,0.0335
3079.00,0.0335
3078.00,0.0335
3077.00,0.0336
3076.00,0.0336
3075.00,0.0336
3074.00,0.0335
3073.00,0.0335
3072.00,0.0335
3071.00,0.0335
3070.00,0.0335
3069.00,0.0334
3068.00,0.0334
3067.00,0.0334
3066.00,0.0334
3065.00,0.0335
3064.00,0.0335
3063.00,0.0335
3062.00,0.0334
3061.00,0.0334
3060.00,0.0334
3059.00,0.0333
3058.00,0.0333
3057.00,0.0333
3056.00,0.0332
3055.00,0.0332
3054.00,0.0332
3053.00,0.0333
3052.00,0.0333
3051.00,0.0332
3050.00,0.0331
3049.00,0.0330
3048.00,0.0330
3047.00,0.0330
3046.00,0.0330
3045.00,0.0330
3044.00,0.0329
3043.00,0.0329
3042.00,0.0329
3041.00,0.0329
3040.00,0.0328
3039.00,0.0328
3038.00,0.0328
3037.00,0.0328
3036.00,0.0328
3035.00,0.0328
3034.00,0.0327
3033.00,0.0327
3032.00,0.0327
3031.00,0.0327
3030.00,0.0327
3029.00,0.0326
3028.00,0.0326
3027.00,0.0325
3026.00,0.0324
3025.00,0.0324
3024.00,0.0323
3023.00,0.0323
3022.00,0.0323
3021.00,0.0324
3020.00,0.0324
3019.00,0.0323
3018.00,0.0323
3017.00,0.0322
3016.00,0.0322
3015.00,0.0322
3014.00,0.0322
3013.00,0.0322
3012.00,0.0322
3011.00,0.0321
3010.00,0.0321
3009.00,0.0320
3008.00,0.0320
3007.00,0.0319
3006.00,0.0318
3005.00,0.0318
3004.00,0.0317
3003.00,0.0316
3002.00,0.0316
3001.00,0.0315
3000.00,0.0315
2999.00,0.0314
2998.00,0.0313
2997.00,0.0313
2996.00,0.0312
2995.00,0.0312
2994.00,0.0312
2993.00,0.0311
2992.00,0.0311
2991.00,0.0310
2990.00,0.0310
2989.00,0.0310
2988.00,0.0309
2987.00,0.0309
2986.00,0.0308
2985.00,0.0308
2984.00,0.0307
2983.00,0.0305
2982.00,0.0304
2981.00,0.0304
2980.00,0.0304
2979.00,0.0305
2978.00,0.0306
2977.00,0.0306
2976.00,0.0306
2975.00,0.0306
2974.00,0.0306
2973.00,0.0305
2972.00,0.0304
2971.00,0.0304
2970.00,0.0304
2969.00,0.0304
2968.00,0.0305
2967.00,0.0305
2966.00,0.0306
2965.00,0.0306
2964.00,0.0306
2963.00,0.0306
2962.00,0.0306
2961.00,0.0306
2960.00,0.0306
2959.00,0.0306
2958.00,0.0306
2957.00,0.0306
2956.00,0.0306
2955.00,0.0307
2954.00,0.0307
2953.00,0.0307
2952.00,0.0308
2951.00,0.0308
2950.00,0.0308
2949.00,0.0308
2948.00,0.0308
2947.00,0.0308
2946.00,0.0308
2945.00,0.0309
2944.00,0.0309
2943.00,0.0310
2942.00,0.0310
2941.00,0.0309
2940.00,0.0309
2939.00,0.0309
2938.00,0.0309
2937.00,0.0309
2936.00,0.0310
2935.00,0.0310
2934.00,0.0310
2933.00,0.0310
2932.00,0.0310
2931.00,0.0310
2930.00,0.0310
2929.00,0.0310
2928.00,0.0310
2927.00,0.0309
2926.00,0.0309
2925.00,0.0309
2924.00,0.0309
2923.00,0.0308
2922.00,0.0308
2921.00,0.0308
2920.00,0.0307
2919.00,0.0305
2918.00,0.0303
2917.00,0.0302
2916.00,0.0302
2915.00,0.0302
2914.00,0.0303
2913.00,0.0304
2912.00,0.0304
2911.00,0.0304
2910.00,0.0304
2909.00,0.0304
2908.00,0.0304
2907.00,0.0304
2906.00,0.0304
2905.00,0.0304
2904.00,0.0303
2903.00,0.0303
2902.00,0.0303
2901.00,0.0303
2900.00,0.0302
2899.00,0.0302
2898.00,0.0301
2897.00,0.0300
2896.00,0.0300
2895.00,0.0299
2894.00,0.0299
2893.00,0.0299
2892.00,0.0299
2891.00,0.0299
2890.00,0.0299
2889.00,0.0299
2888.00,0.0299
2887.00,0.0299
2886.00,0.0299
2885.00,0.0299
2884.00,0.0299
2883.00,0.0299
2882.00,0.0299
2881.00,0.0299
2880.00,0.0299
2879.00,0.0298
2878.00,0.0298
2877.00,0.0298
2876.00,0.0297
2875.00,0.0297
2874.00,0.0296
2873.00,0.0296
2872.00,0.0295
2871.00,0.0295
2870.00,0.0295
2869.00,0.0295
2868.00,0.0296
2867.00,0.0296
2866.00,0.0295
2865.00,0.0295
2864.00,0.0295
2863.00,0.0296
2862.00,0.0296
2861.00,0.0296
2860.00,0.0296
2859.00,0.0296
2858.00,0.0297
2857.00,0.0297
2856.00,0.0297
2855.00,0.0296
2854.00,0.0296
2853.00,0.0296
2852.00,0.0296
2851.00,0.0295
2850.00,0.0294
2849.00,0.0293
2848.00,0.0292
2847.00,0.0292
2846.00,0.0291
2845.00,0.0291
2844.00,0.0291
2843.00,0.0291
2842.00,0.0291
2841.00,0.0291
2840.00,0.0290
2839.00,0.0290
2838.00,0.0290
2837.00,0.0290
2836.00,0.0290
2835.00,0.0289
2834.00,0.0289
2833.00,0.0289
2832.00,0.0289
2831.00,0.0289
2830.00,0.0288
2829.00,0.0288
2828.00,0.0288
2827.00,0.0287
2826.00,0.0287
2825.00,0.0287
2824.00,0.0287
2823.00,0.0286
2822.00,0.0286
2821.00,0.0286
2820.00,0.0286
2819.00,0.0286
2818.00,0.0286
2817.00,0.0285
2816.00,0.0285
2815.00,0.0285
2814.00,0.0285
2813.00,0.0285
2812.00,0.0284
2811.00,0.0284
2810.00,0.0283
2809.00,0.0283
2808.00,0.0283
2807.00,0.0283
2806.00,0.0282
2805.00,0.0282
2804.00,0.0282
2803.00,0.0282
2802.00,0.0282
2801.00,0.0282
2800.00,0.0281
2799.00,0.0281
2798.00,0.0281
2797.00,0.0281
2796.00,0.0280
2795.00,0.0280
2794.00,0.0280
2793.00,0.0280
2792.00,0.0279
2791.00,0.0279
2790.00,0.0279
2789.00,0.0279
2788.00,0.0279
2787.00,0.0279
2786.00,0.0279
2785.00,0.0279
2784.00,0.0279
2783.00,0.0278
2782.00,0.0278
2781.00,0.0278
2780.00,0.0277
2779.00,0.0277
2778.00,0.0277
2777.00,0.0277
2776.00,0.0277
2775.00,0.0278
2774.00,0.0277
2773.00,0.0277
2772.00,0.0276
2771.00,0.0276
2770.00,0.0276
2769.00,0.0275
2768.00,0.0275
2767.00,0.0275
2766.00,0.0275
2765.00,0.0275
2764.00,0.0275
2763.00,0.0275
2762.00,0.0275
2761.00,0.0275
2760.00,0.0274
2759.00,0.0274
2758.00,0.0274
2757.00,0.0274
2756.00,0.0274
2755.00,0.0274
2754.00,0.0274
2753.00,0.0273
2752.00,0.0273
2751.00,0.0273
2750.00,0.0273
2749.00,0.0273
2748.00,0.0273
2747.00,0.0273
2746.00,0.0273
2745.00,0.0272
2744.00,0.0271
2743.00,0.0271
2742.00,0.0271
2741.00,0.0271
2740.00,0.0271
2739.00,0.0271
2738.00,0.0271
2737.00,0.0270
2736.00,0.0270
2735.00,0.0270
2734.00,0.0269
2733.00,0.0269
2732.00,0.0270
2731.00,0.0270
2730.00,0.0270
2729.00,0.0269
2728.00,0.0269
2727.00,0.0269
2726.00,0.0269
2725.00,0.0269
2724.00,0.0269
2723.00,0.0269
2722.00,0.0269
2721.00,0.0269
2720.00,0.0268
2719.00,0.0268
2718.00,0.0268
2717.00,0.0267
2716.00,0.0267
2715.00,0.0267
2714.00,0.0267
2713.00,0.0267
2712.00,0.0267
2711.00,0.0267
2710.00,0.0267
2709.00,0.0267
2708.00,0.0267
2707.00,0.0266
2706.00,0.0266
2705.00,0.0265
2704.00,0.0265
2703.00,0.0265
2702.00,0.0265
2701.00,0.0265
2700.00,0.0265
2699.00,0.0265
2698.00,0.0265
2697.00,0.0265
2696.00,0.0265
2695.00,0.0265
2694.00,0.0265
2693.00,0.0264
2692.00,0.0264
2691.00,0.0264
2690.00,0.0263
2689.00,0.0263
2688.00,0.0263
2687.00,0.0263
2686.00,0.0263
2685.00,0.0263
2684.00,0.0263
2683.00,0.0262
2682.00,0.0262
2681.00,0.0262
2680.00,0.0262
2679.00,0.0262
2678.00,0.0262
2677.00,0.0262
2676.00,0.0262
2675.00,0.0262
2674.00,0.0262
2673.00,0.0261
2672.00,0.0261
2671.00,0.0261
2670.00,0.0261
2669.00,0.0260
2668.00,0.0260
2667.00,0.0260
2666.00,0.0260
2665.00,0.0260
2664.00,0.0261
2663.00,0.0261
2662.00,0.0261
2661.00,0.0261
2660.00,0.0261
2659.00,0.0261
2658.00,0.0261
2657.00,0.0261
2656.00,0.0261
2655.00,0.0261
2654.00,0.0261
2653.00,0.0261
2652.00,0.0261
2651.00,0.0261
2650.00,0.0261
2649.00,0.0262
2648.00,0.0262
2647.00,0.0262
2646.00,0.0262
2645.00,0.0262
2644.00,0.0263
2643.00,0.0263
2642.00,0.0264
2641.00,0.0264
2640.00,0.0263
2639.00,0.0263
2638.00,0.0262
2637.00,0.0262
2636.00,0.0262
2635.00,0.0262
2634.00,0.0261
2633.00,0.0261
2632.00,0.0261
2631.00,0.0261
2630.00,0.0261
2629.00,0.0262
2628.00,0.0262
2627.00,0.0262
2626.00,0.0262
2625.00,0.0262
2624.00,0.0262
2623.00,0.0262
2622.00,0.0262
2621.00,0.0261
2620.00,0.0261
2619.00,0.0261
2618.00,0.0261
2617.00,0.0262
2616.00,0.0262
2615.00,0.0262
2614.00,0.0262
2613.00,0.0262
2612.00,0.0262
2611.00,0.0261
2610.00,0.0261
2609.00,0.0260
2608.00,0.0261
2607.00,0.0261
2606.00,0.0261
2605.00,0.0261
2604.00,0.0261
2603.00,0.0261
2602.00,0.0261
2601.00,0.0261
2600.00,0.0261
2599.00,0.0261
2598.00,0.0260
2597.00,0.0260
2596.00,0.0260
2595.00,0.0260
2594.00,0.0261
2593.00,0.0261
2592.00,0.0261
2591.00,0.0261
2590.00,0.0261
2589.00,0.0261
2588.00,0.0260
2587.00,0.0260
2586.00,0.0259
2585.00,0.0259
2584.00,0.0259
2583.00,0.0260
2582.00,0.0259
2581.00,0.0259
2580.00,0.0259
2579.00,0.0258
2578.00,0.0259
2577.00,0.0259
2576.00,0.0260
2575.00,0.0259
2574.00,0.0259
2573.00,0.0259
2572.00,0.0258
2571.00,0.0258
2570.00,0.0258
2569.00,0.0259
2568.00,0.0259
2567.00,0.0259
2566.00,0.0259
2565.00,0.0259
2564.00,0.0259
2563.00,0.0260
2562.00,0.0260
2561.00,0.0260
2560.00,0.0260
2559.00,0.0259
2558.00,0.0259
2557.00,0.0259
2556.00,0.0259
2555.00,0.0259
2554.00,0.0259
2553.00,0.0259
2552.00,0.0259
2551.00,0.0259
2550.00,0.0259
2549.00,0.0259
2548.00,0.0258
2547.00,0.0257
2546.00,0.0256
2545.00,0.0256
2544.00,0.0256
2543.00,0.0256
2542.00,0.0257
2541.00,0.0258
2540.00,0.0258
2539.00,0.0258
2538.00,0.0258
2537.00,0.0257
2536.00,0.0257
2535.00,0.0257
2534.00,0.0257
2533.00,0.0257
2532.00,0.0257
2531.00,0.0257
2530.00,0.0256
2529.00,0.0257
2528.00,0.0257
2527.00,0.0257
2526.00,0.0257
2525.00,0.0256
2524.00,0.0256
2523.00,0.0256
2522.00,0.0256
2521.00,0.0256
2520.00,0.0256
2519.00,0.0256
2518.00,0.0255
2517.00,0.0255
2516.00,0.0254
2515.00,0.0253
2514.00,0.0254
2513.00,0.0254
2512.00,0.0255
2511.00,0.0255
2510.00,0.0254
2509.00,0.0253
2508.00,0.0253
2507.00,0.0252
2506.00,0.0252
2505.00,0.0252
2504.00,0.0252
2503.00,0.0253
2502.00,0.0253
2501.00,0.0254
2500.00,0.0254
2499.00,0.0254
2498.00,0.0253
2497.00,0.0253
2496.00,0.0253
2495.00,0.0252
2494.00,0.0252
2493.00,0.0252
2492.00,0.0252
2491.00,0.0252
2490.00,0.0252
2489.00,0.0252
2488.00,0.0251
2487.00,0.0251
2486.00,0.0250
2485.00,0.0250
2484.00,0.0250
2483.00,0.0250
2482.00,0.0251
2481.00,0.0252
2480.00,0.0252
2479.00,0.0252
2478.00,0.0252
2477.00,0.0252
2476.00,0.0251
2475.00,0.0251
2474.00,0.0250
2473.00,0.0250
2472.00,0.0250
2471.00,0.0249
2470.00,0.0249
2469.00,0.0249
2468.00,0.0249
2467.00,0.0248
2466.00,0.0248
2465.00,0.0248
2464.00,0.0248
2463.00,0.0248
2462.00,0.0248
2461.00,0.0248
2460.00,0.0248
2459.00,0.0249
2458.00,0.0249
2457.00,0.0249
2456.00,0.0249
2455.00,0.0248
2454.00,0.0248
2453.00,0.0247
2452.00,0.0248
2451.00,0.0248
2450.00,0.0248
2449.00,0.0248
2448.00,0.0247
2447.00,0.0247
2446.00,0.0247
2445.00,0.0247
2444.00,0.0246
2443.00,0.0246
2442.00,0.0246
2441.00,0.0246
2440.00,0.0245
2439.00,0.0245
2438.00,0.0244
2437.00,0.0244
2436.00,0.0244
2435.00,0.0244
2434.00,0.0244
2433.00,0.0244
2432.00,0.0244
2431.00,0.0244
2430.00,0.0244
2429.00,0.0245
2428.00,0.0245
2427.00,0.0244
2426.00,0.0244
2425.00,0.0243
2424.00,0.0242
2423.00,0.0242
2422.00,0.0241
2421.00,0.0241
2420.00,0.0241
2419.00,0.0241
2418.00,0.0242
2417.00,0.0242
2416.00,0.0242
2415.00,0.0242
2414.00,0.0241
2413.00,0.0241
2412.00,0.0241
2411.00,0.0240
2410.00,0.0240
2409.00,0.0239
2408.00,0.0239
2407.00,0.0239
2406.00,0.0239
2405.00,0.0240
2404.00,0.0239
2403.00,0.0239
2402.00,0.0238
2401.00,0.0238
2400.00,0.0237
2399.00,0.0236
2398.00,0.0236
2397.00,0.0236
2396.00,0.0236
2395.00,0.0236
2394.00,0.0237
2393.00,0.0237
2392.00,0.0236
2391.00,0.0236
2390.00,0.0235
2389.00,0.0235
2388.00,0.0234
2387.00,0.0233
2386.00,0.0232
2385.00,0.0230
2384.00,0.0228
2383.00,0.0226
2382.00,0.0224
2381.00,0.0223
2380.00,0.0221
2379.00,0.0220
2378.00,0.0220
2377.00,0.0220
2376.00,0.0221
2375.00,0.0223
2374.00,0.0224
2373.00,0.0225
2372.00,0.0225
2371.00,0.0224
2370.00,0.0222
2369.00,0.0221
2368.00,0.0221
2367.00,0.0221
2366.00,0.0222
2365.00,0.0221
2364.00,0.0221
2363.00,0.0221
2362.00,0.0222
2361.00,0.0224
2360.00,0.0225
2359.00,0.0226
2358.00,0.0226
2357.00,0.0226
2356.00,0.0227
2355.00,0.0228
2354.00,0.0226
2353.00,0.0219
2352.00,0.0210
2351.00,0.0204
2350.00,0.0204
2349.00,0.0208
2348.00,0.0212
2347.00,0.0213
2346.00,0.0213
2345.00,0.0214
2344.00,0.0218
2343.00,0.0221
2342.00,0.0223
2341.00,0.0224
2340.00,0.0224
2339.00,0.0224
2338.00,0.0223
2337.00,0.0222
2336.00,0.0222
2335.00,0.0221
2334.00,0.0222
2333.00,0.0224
2332.00,0.0226
2331.00,0.0228
2330.00,0.0229
2329.00,0.0230
2328.00,0.0231
2327.00,0.0232
2326.00,0.0232
2325.00,0.0233
2324.00,0.0233
2323.00,0.0233
2322.00,0.0233
2321.00,0.0232
2320.00,0.0231
2319.00,0.0230
2318.00,0.0229
2317.00,0.0229
2316.00,0.0228
2315.00,0.0228
2314.00,0.0228
2313.00,0.0228
2312.00,0.0228
2311.00,0.0228
2310.00,0.0227
2309.00,0.0227
2308.00,0.0226
2307.00,0.0226
2306.00,0.0227
2305.00,0.0227
2304.00,0.0227
2303.00,0.0227
2302.00,0.0227
2301.00,0.0227
2300.00,0.0226
2299.00,0.0226
2298.00,0.0225
2297.00,0.0224
2296.00,0.0224
2295.00,0.0224
2294.00,0.0224
2293.00,0.0224
2292.00,0.0225
2291.00,0.0225
2290.00,0.0226
2289.00,0.0226
2288.00,0.0226
2287.00,0.0226
2286.00,0.0225
2285.00,0.0225
2284.00,0.0225
2283.00,0.0225
2282.00,0.0224
2281.00,0.0224
2280.00,0.0224
2279.00,0.0224
2278.00,0.0224
2277.00,0.0224
2276.00,0.0223
2275.00,0.0223
2274.00,0.0223
2273.00,0.0223
2272.00,0.0223
2271.00,0.0222
2270.00,0.0222
2269.00,0.0221
2268.00,0.0221
2267.00,0.0221
2266.00,0.0221
2265.00,0.0221
2264.00,0.0220
2263.00,0.0220
2262.00,0.0220
2261.00,0.0221
2260.00,0.0221
2259.00,0.0222
2258.00,0.0223
2257.00,0.0223
2256.00,0.0224
2255.00,0.0223
2254.00,0.0221
2253.00,0.0219
2252.00,0.0218
2251.00,0.0218
2250.00,0.0219
2249.00,0.0220
2248.00,0.0221
2247.00,0.0221
2246.00,0.0220
2245.00,0.0219
2244.00,0.0219
2243.00,0.0219
2242.00,0.0220
2241.00,0.0220
2240.00,0.0220
2239.00,0.0219
2238.00,0.0218
2237.00,0.0219
2236.00,0.0219
2235.00,0.0220
2234.00,0.0221
2233.00,0.0221
2232.00,0.0222
2231.00,0.0222
2230.00,0.0222
2229.00,0.0222
2228.00,0.0223
2227.00,0.0223
2226.00,0.0223
2225.00,0.0223
2224.00,0.0222
2223.00,0.0221
2222.00,0.0220
2221.00,0.0220
2220.00,0.0220
2219.00,0.0220
2218.00,0.0220
2217.00,0.0220
2216.00,0.0221
2215.00,0.0221
2214.00,0.0222
2213.00,0.0222
2212.00,0.0221
2211.00,0.0219
2210.00,0.0218
2209.00,0.0217
2208.00,0.0217
2207.00,0.0218
2206.00,0.0218
2205.00,0.0220
2204.00,0.0222
2203.00,0.0223
2202.00,0.0222
2201.00,0.0222
2200.00,0.0221
2199.00,0.0220
2198.00,0.0219
2197.00,0.0219
2196.00,0.0220
2195.00,0.0220
2194.00,0.0219
2193.00,0.0218
2192.00,0.0217
2191.00,0.0217
2190.00,0.0217
2189.00,0.0218
2188.00,0.0217
2187.00,0.0216
2186.00,0.0215
2185.00,0.0215
2184.00,0.0216
2183.00,0.0216
2182.00,0.0217
2181.00,0.0217
2180.00,0.0218
2179.00,0.0217
2178.00,0.0215
2177.00,0.0213
2176.00,0.0211
2175.00,0.0211
2174.00,0.0213
2173.00,0.0215
2172.00,0.0215
2171.00,0.0214
2170.00,0.0212
2169.00,0.0210
2168.00,0.0209
2167.00,0.0211
2166.00,0.0213
2165.00,0.0215
2164.00,0.0217
2163.00,0.0218
2162.00,0.0217
2161.00,0.0214
2160.00,0.0209
2159.00,0.0204
2158.00,0.0202
2157.00,0.0202
2156.00,0.0204
2155.00,0.0207
2154.00,0.0208
2153.00,0.0209
2152.00,0.0208
2151.00,0.0207
2150.00,0.0206
2149.00,0.0205
2148.00,0.0205
2147.00,0.0204
2146.00,0.0203
2145.00,0.0203
2144.00,0.0203
2143.00,0.0204
2142.00,0.0205
2141.00,0.0205
2140.00,0.0204
2139.00,0.0203
2138.00,0.0202
2137.00,0.0201
2136.00,0.0200
2135.00,0.0199
2134.00,0.0198
2133.00,0.0198
2132.00,0.0198
2131.00,0.0198
2130.00,0.0198
2129.00,0.0198
2128.00,0.0198
2127.00,0.0198
2126.00,0.0198
2125.00,0.0199
2124.00,0.0199
2123.00,0.0199
2122.00,0.0200
2121.00,0.0201
2120.00,0.0202
2119.00,0.0203
2118.00,0.0203
2117.00,0.0202
2116.00,0.0202
2115.00,0.0201
2114.00,0.0200
2113.00,0.0200
2112.00,0.0200
2111.00,0.0200
2110.00,0.0200
2109.00,0.0200
2108.00,0.0200
2107.00,0.0200
2106.00,0.0200
2105.00,0.0199
2104.00,0.0198
2103.00,0.0198
2102.00,0.0197
2101.00,0.0197
2100.00,0.0197
2099.00,0.0198
2098.00,0.0198
2097.00,0.0198
2096.00,0.0198
2095.00,0.0197
2094.00,0.0197
2093.00,0.0197
2092.00,0.0198
2091.00,0.0198
2090.00,0.0198
2089.00,0.0198
2088.00,0.0198
2087.00,0.0198
2086.00,0.0197
2085.00,0.0197
2084.00,0.0197
2083.00,0.0197
2082.00,0.0198
2081.00,0.0198
2080.00,0.0197
2079.00,0.0196
2078.00,0.0196
2077.00,0.0197
2076.00,0.0197
2075.00,0.0197
2074.00,0.0196
2073.00,0.0195
2072.00,0.0195
2071.00,0.0194
2070.00,0.0194
2069.00,0.0195
2068.00,0.0195
2067.00,0.0196
2066.00,0.0196
2065.00,0.0197
2064.00,0.0197
2063.00,0.0196
2062.00,0.0196
2061.00,0.0195
2060.00,0.0195
2059.00,0.0195
2058.00,0.0195
2057.00,0.0196
2056.00,0.0196
2055.00,0.0197
2054.00,0.0197
2053.00,0.0197
2052.00,0.0197
2051.00,0.0197
2050.00,0.0197
2049.00,0.0198
2048.00,0.0198
2047.00,0.0197
2046.00,0.0197
2045.00,0.0197
2044.00,0.0197
2043.00,0.0195
2042.00,0.0195
2041.00,0.0195
2040.00,0.0196
2039.00,0.0198
2038.00,0.0199
2037.00,0.0200
2036.00,0.0200
2035.00,0.0199
2034.00,0.0196
2033.00,0.0194
2032.00,0.0192
2031.00,0.0191
2030.00,0.0191
2029.00,0.0192
2028.00,0.0192
2027.00,0.0191
2026.00,0.0190
2025.00,0.0190
2024.00,0.0191
2023.00,0.0191
2022.00,0.0191
2021.00,0.0192
2020.00,0.0192
2019.00,0.0191
2018.00,0.0189
2017.00,0.0188
2016.00,0.0189
2015.00,0.0189
2014.00,0.0190
2013.00,0.0190
2012.00,0.0189
2011.00,0.0187
2010.00,0.0186
2009.00,0.0185
2008.00,0.0185
2007.00,0.0185
2006.00,0.0184
2005.00,0.0184
2004.00,0.0185
2003.00,0.0186
2002.00,0.0188
2001.00,0.0188
2000.00,0.0188
1999.00,0.0188
1998.00,0.0187
1997.00,0.0187
1996.00,0.0187
1995.00,0.0187
1994.00,0.0188
1993.00,0.0188
1992.00,0.0188
1991.00,0.0187
1990.00,0.0187
1989.00,0.0186
1988.00,0.0185
1987.00,0.0184
1986.00,0.0183
1985.00,0.0183
1984.00,0.0184
1983.00,0.0186
1982.00,0.0188
1981.00,0.0189
1980.00,0.0189
1979.00,0.0187
1978.00,0.0185
1977.00,0.0184
1976.00,0.0184
1975.00,0.0183
1974.00,0.0182
1973.00,0.0181
1972.00,0.0180
1971.00,0.0180
1970.00,0.0180
1969.00,0.0180
1968.00,0.0181
1967.00,0.0180
1966.00,0.0179
1965.00,0.0179
1964.00,0.0179
1963.00,0.0180
1962.00,0.0181
1961.00,0.0181
1960.00,0.0179
1959.00,0.0176
1958.00,0.0174
1957.00,0.0172
1956.00,0.0170
1955.00,0.0169
1954.00,0.0170
1953.00,0.0171
1952.00,0.0172
1951.00,0.0172
1950.00,0.0171
1949.00,0.0170
1948.00,0.0170
1947.00,0.0171
1946.00,0.0172
1945.00,0.0172
1944.00,0.0172
1943.00,0.0171
1942.00,0.0170
1941.00,0.0169
1940.00,0.0168
1939.00,0.0167
1938.00,0.0166
1937.00,0.0166
1936.00,0.0165
1935.00,0.0165
1934.00,0.0165
1933.00,0.0166
1932.00,0.0166
1931.00,0.0166
1930.00,0.0165
1929.00,0.0165
1928.00,0.0164
1927.00,0.0163
1926.00,0.0163
1925.00,0.0165
1924.00,0.0166
1923.00,0.0166
1922.00,0.0164
1921.00,0.0162
1920.00,0.0161
1919.00,0.0160
1918.00,0.0159
1917.00,0.0158
1916.00,0.0157
1915.00,0.0157
1914.00,0.0156
1913.00,0.0156
1912.00,0.0156
1911.00,0.0156
1910.00,0.0156
1909.00,0.0156
1908.00,0.0155
1907.00,0.0154
1906.00,0.0154
1905.00,0.0154
1904.00,0.0154
1903.00,0.0153
1902.00,0.0152
1901.00,0.0151
1900.00,0.0150
1899.00,0.0150
1898.00,0.0150
1897.00,0.0151
1896.00,0.0151
1895.00,0.0150
1894.00,0.0150
1893.00,0.0150
1892.00,0.0150
1891.00,0.0150
1890.00,0.0148
1889.00,0.0147
1888.00,0.0146
1887.00,0.0146
1886.00,0.0147
1885.00,0.0147
1884.00,0.0146
1883.00,0.0145
1882.00,0.0144
1881.00,0.0144
1880.00,0.0144
1879.00,0.0143
1878.00,0.0142
1877.00,0.0141
1876.00,0.0140
1875.00,0.0140
1874.00,0.0140
1873.00,0.0141
1872.00,0.0143
1871.00,0.0143
1870.00,0.0141
1869.00,0.0138
1868.00,0.0136
1867.00,0.0135
1866.00,0.0136
1865.00,0.0136
1864.00,0.0136
1863.00,0.0135
1862.00,0.0134
1861.00,0.0134
1860.00,0.0134
1859.00,0.0133
1858.00,0.0132
1857.00,0.0133
1856.00,0.0133
1855.00,0.0133
1854.00,0.0132
1853.00,0.0131
1852.00,0.0130
1851.00,0.0129
1850.00,0.0129
1849.00,0.0129
1848.00,0.0129
1847.00,0.0129
1846.00,0.0128
1845.00,0.0126
1844.00,0.0124
1843.00,0.0123
1842.00,0.0124
1841.00,0.0125
1840.00,0.0125
1839.00,0.0125
1838.00,0.0124
1837.00,0.0123
1836.00,0.0122
1835.00,0.0122
1834.00,0.0123
1833.00,0.0125
1832.00,0.0126
1831.00,0.0125
1830.00,0.0122
1829.00,0.0121
1828.00,0.0121
1827.00,0.0122
1826.00,0.0122
1825.00,0.0120
1824.00,0.0119
1823.00,0.0118
1822.00,0.0117
1821.00,0.0117
1820.00,0.0116
1819.00,0.0115
1818.00,0.0114
1817.00,0.0114
1816.00,0.0114
1815.00,0.0115
1814.00,0.0115
1813.00,0.0115
1812.00,0.0115
1811.00,0.0114
1810.00,0.0113
1809.00,0.0113
1808.00,0.0113
1807.00,0.0113
1806.00,0.0114
1805.00,0.0115
1804.00,0.0117
1803.00,0.0118
1802.00,0.0118
1801.00,0.0117
1800.00,0.0117
1799.00,0.0116
1798.00,0.0116
1797.00,0.0117
1796.00,0.0119
1795.00,0.0120
1794.00,0.0120
1793.00,0.0119
1792.00,0.0119
1791.00,0.0120
1790.00,0.0121
1789.00,0.0123
1788.00,0.0124
1787.00,0.0125
1786.00,0.0125
1785.00,0.0127
1784.00,0.0129
1783.00,0.0132
1782.00,0.0134
1781.00,0.0135
1780.00,0.0136
1779.00,0.0137
1778.00,0.0139
1777.00,0.0141
1776.00,0.0144
1775.00,0.0147
1774.00,0.0148
1773.00,0.0148
1772.00,0.0148
1771.00,0.0149
1770.00,0.0151
1769.00,0.0152
1768.00,0.0154
1767.00,0.0155
1766.00,0.0158
1765.00,0.0160
1764.00,0.0163
1763.00,0.0165
1762.00,0.0166
1761.00,0.0167
1760.00,0.0169
1759.00,0.0171
1758.00,0.0172
1757.00,0.0173
1756.00,0.0174
1755.00,0.0175
1754.00,0.0178
1753.00,0.0179
1752.00,0.0181
1751.00,0.0183
1750.00,0.0186
1749.00,0.0189
1748.00,0.0192
1747.00,0.0196
1746.00,0.0199
1745.00,0.0202
1744.00,0.0205
1743.00,0.0208
1742.00,0.0211
1741.00,0.0213
1740.00,0.0214
1739.00,0.0216
1738.00,0.0219
1737.00,0.0222
1736.00,0.0224
1735.00,0.0225
1734.00,0.0227
1733.00,0.0233
1732.00,0.0239
1731.00,0.0244
1730.00,0.0248
1729.00,0.0252
1728.00,0.0254
1727.00,0.0257
1726.00,0.0261
1725.00,0.0264
1724.00,0.0266
1723.00,0.0269
1722.00,0.0273
1721.00,0.0277
1720.00,0.0280
1719.00,0.0281
1718.00,0.0279
1717.00,0.0281
1716.00,0.0284
1715.00,0.0288
1714.00,0.0291
1713.00,0.0293
1712.00,0.0295
1711.00,0.0296
1710.00,0.0298
1709.00,0.0300
1708.00,0.0303
1707.00,0.0304
1706.00,0.0305
1705.00,0.0307
1704.00,0.0308
1703.00,0.0310
1702.00,0.0311
1701.00,0.0310
1700.00,0.0308
1699.00,0.0307
1698.00,0.0307
1697.00,0.0309
1696.00,0.0311
1695.00,0.0311
1694.00,0.0311
1693.00,0.0312
1692.00,0.0314
1691.00,0.0315
1690.00,0.0316
1689.00,0.0317
1688.00,0.0319
1687.00,0.0322
1686.00,0.0324
1685.00,0.0324
1684.00,0.0326
1683.00,0.0329
1682.00,0.0330
1681.00,0.0330
1680.00,0.0331
1679.00,0.0332
1678.00,0.0333
1677.00,0.0334
1676.00,0.0335
1675.00,0.0337
1674.00,0.0340
1673.00,0.0343
1672.00,0.0345
1671.00,0.0347
1670.00,0.0349
1669.00,0.0352
1668.00,0.0355
1667.00,0.0356
1666.00,0.0358
1665.00,0.0359
1664.00,0.0361
1663.00,0.0362
1662.00,0.0365
1661.00,0.0367
1660.00,0.0368
1659.00,0.0370
1658.00,0.0372
1657.00,0.0375
1656.00,0.0379
1655.00,0.0382
1654.00,0.0385
1653.00,0.0390
1652.00,0.0393
1651.00,0.0393
1650.00,0.0394
1649.00,0.0396
1648.00,0.0396
1647.00,0.0398
1646.00,0.0402
1645.00,0.0406
1644.00,0.0408
1643.00,0.0410
1642.00,0.0412
1641.00,0.0415
1640.00,0.0418
1639.00,0.0420
1638.00,0.0422
1637.00,0.0425
1636.00,0.0430
1635.00,0.0436
1634.00,0.0439
1633.00,0.0441
1632.00,0.0443
1631.00,0.0445
1630.00,0.0448
1629.00,0.0451
1628.00,0.0455
1627.00,0.0458
1626.00,0.0461
1625.00,0.0463
1624.00,0.0465
1623.00,0.0469
1622.00,0.0472
1621.00,0.0475
1620.00,0.0477
1619.00,0.0478
1618.00,0.0479
1617.00,0.0482
1616.00,0.0487
1615.00,0.0490
1614.00,0.0493
1613.00,0.0495
1612.00,0.0496
1611.00,0.0498
1610.00,0.0500
1609.00,0.0503
1608.00,0.0506
1607.00,0.0509
1606.00,0.0511
1605.00,0.0512
1604.00,0.0514
1603.00,0.0517
1602.00,0.0519
1601.00,0.0522
1600.00,0.0523
1599.00,0.0525
1598.00,0.0526
1597.00,0.0528
1596.00,0.0530
1595.00,0.0532
1594.00,0.0534
1593.00,0.0535
1592.00,0.0536
1591.00,0.0537
1590.00,0.0539
1589.00,0.0540
1588.00,0.0541
1587.00,0.0542
1586.00,0.0543
1585.00,0.0544
1584.00,0.0545
1583.00,0.0545
1582.00,0.0546
1581.00,0.0547
1580.00,0.0548
1579.00,0.0549
1578.00,0.0549
1577.00,0.0550
1576.00,0.0551
1575.00,0.0553
1574.00,0.0553
1573.00,0.0553
1572.00,0.0552
1571.00,0.0552
1570.00,0.0552
1569.00,0.0553
1568.00,0.0552
1567.00,0.0551
1566.00,0.0551
1565.00,0.0550
1564.00,0.0549
1563.00,0.0549
1562.00,0.0549
1561.00,0.0549
1560.00,0.0546
1559.00,0.0548
1558.00,0.0551
1557.00,0.0547
1556.00,0.0541
1555.00,0.0538
1554.00,0.0536
1553.00,0.0535
1552.00,0.0534
1551.00,0.0533
1550.00,0.0532
1549.00,0.0529
1548.00,0.0526
1547.00,0.0523
1546.00,0.0520
1545.00,0.0518
1544.00,0.0515
1543.00,0.0512
1542.00,0.0507
1541.00,0.0502
1540.00,0.0504
1539.00,0.0506
1538.00,0.0504
1537.00,0.0501
1536.00,0.0498
1535.00,0.0496
1534.00,0.0495
1533.00,0.0495
1532.00,0.0494
1531.00,0.0491
1530.00,0.0487
1529.00,0.0485
1528.00,0.0482
1527.00,0.0479
1526.00,0.0476
1525.00,0.0474
1524.00,0.0472
1523.00,0.0468
1522.00,0.0465
1521.00,0.0464
1520.00,0.0466
1519.00,0.0467
1518.00,0.0465
1517.00,0.0463
1516.00,0.0461
1515.00,0.0457
1514.00,0.0453
1513.00,0.0450
1512.00,0.0449
1511.00,0.0449
1510.00,0.0450
1509.00,0.0450
1508.00,0.0448
1507.00,0.0446
1506.00,0.0444
1505.00,0.0439
1504.00,0.0435
1503.00,0.0433
1502.00,0.0431
1501.00,0.0429
1500.00,0.0427
1499.00,0.0425
1498.00,0.0422
1497.00,0.0420
1496.00,0.0422
1495.00,0.0424
1494.00,0.0425
1493.00,0.0425
1492.00,0.0425
1491.00,0.0426
1490.00,0.0427
1489.00,0.0429
1488.00,0.0431
1487.00,0.0430
1486.00,0.0428
1485.00,0.0426
1484.00,0.0425
1483.00,0.0425
1482.00,0.0425
1481.00,0.0425
1480.00,0.0425
1479.00,0.0426
1478.00,0.0427
1477.00,0.0428
1476.00,0.0429
1475.00,0.0428
1474.00,0.0425
1473.00,0.0425
1472.00,0.0427
1471.00,0.0429
1470.00,0.0430
1469.00,0.0431
1468.00,0.0432
1467.00,0.0433
1466.00,0.0433
1465.00,0.0433
1464.00,0.0434
1463.00,0.0435
1462.00,0.0436
1461.00,0.0437
1460.00,0.0438
1459.00,0.0436
1458.00,0.0434
1457.00,0.0435
1456.00,0.0439
1455.00,0.0442
1454.00,0.0444
1453.00,0.0445
1452.00,0.0446
1451.00,0.0448
1450.00,0.0450
1449.00,0.0452
1448.00,0.0454
1447.00,0.0456
1446.00,0.0456
1445.00,0.0457
1444.00,0.0457
1443.00,0.0458
1442.00,0.0459
1441.00,0.0459
1440.00,0.0460
1439.00,0.0461
1438.00,0.0461
1437.00,0.0462
1436.00,0.0465
1435.00,0.0468
1434.00,0.0470
1433.00,0.0470
1432.00,0.0471
1431.00,0.0473
1430.00,0.0474
1429.00,0.0475
1428.00,0.0476
1427.00,0.0476
1426.00,0.0477
1425.00,0.0477
1424.00,0.0478
1423.00,0.0480
1422.00,0.0480
1421.00,0.0481
1420.00,0.0482
1419.00,0.0485
1418.00,0.0488
1417.00,0.0489
1416.00,0.0489
1415.00,0.0489
1414.00,0.0489
1413.00,0.0489
1412.00,0.0490
1411.00,0.0491
1410.00,0.0492
1409.00,0.0492
1408.00,0.0493
1407.00,0.0494
1406.00,0.0495
1405.00,0.0496
1404.00,0.0498
1403.00,0.0499
1402.00,0.0499
1401.00,0.0500
1400.00,0.0501
1399.00,0.0503
1398.00,0.0505
1397.00,0.0506
1396.00,0.0507
1395.00,0.0508
1394.00,0.0509
1393.00,0.0510
1392.00,0.0510
1391.00,0.0510
1390.00,0.0510
1389.00,0.0511
1388.00,0.0513
1387.00,0.0516
1386.00,0.0519
1385.00,0.0520
1384.00,0.0521
1383.00,0.0521
1382.00,0.0521
1381.00,0.0522
1380.00,0.0523
1379.00,0.0525
1378.00,0.0526
1377.00,0.0528
1376.00,0.0529
1375.00,0.0531
1374.00,0.0533
1373.00,0.0534
1372.00,0.0533
1371.00,0.0533
1370.00,0.0533
1369.00,0.0534
1368.00,0.0534
1367.00,0.0535
1366.00,0.0535
1365.00,0.0535
1364.00,0.0536
1363.00,0.0537
1362.00,0.0538
1361.00,0.0538
1360.00,0.0538
1359.00,0.0538
1358.00,0.0537
1357.00,0.0537
1356.00,0.0537
1355.00,0.0536
1354.00,0.0536
1353.00,0.0535
1352.00,0.0535
1351.00,0.0534
1350.00,0.0533
1349.00,0.0533
1348.00,0.0533
1347.00,0.0532
1346.00,0.0532
1345.00,0.0532
1344.00,0.0532
1343.00,0.0531
1342.00,0.0531
1341.00,0.0532
1340.00,0.0532
1339.00,0.0533
1338.00,0.0532
1337.00,0.0531
1336.00,0.0530
1335.00,0.0528
1334.00,0.0527
1333.00,0.0526
1332.00,0.0525
1331.00,0.0525
1330.00,0.0524
1329.00,0.0524
1328.00,0.0523
1327.00,0.0523
1326.00,0.0522
1325.00,0.0522
1324.00,0.0522
1323.00,0.0522
1322.00,0.0521
1321.00,0.0521
1320.00,0.0521
1319.00,0.0521
1318.00,0.0521
1317.00,0.0521
1316.00,0.0522
1315.00,0.0522
1314.00,0.0522
1313.00,0.0522
1312.00,0.0521
1311.00,0.0521
1310.00,0.0520
1309.00,0.0520
1308.00,0.0520
1307.00,0.0520
1306.00,0.0520
1305.00,0.0521
1304.00,0.0521
1303.00,0.0521
1302.00,0.0522
1301.00,0.0522
1300.00,0.0522
1299.00,0.0522
1298.00,0.0522
1297.00,0.0522
1296.00,0.0522
1295.00,0.0522
1294.00,0.0523
1293.00,0.0523
1292.00,0.0524
1291.00,0.0525
1290.00,0.0526
1289.00,0.0527
1288.00,0.0527
1287.00,0.0528
1286.00,0.0528
1285.00,0.0528
1284.00,0.0529
1283.00,0.0529
1282.00,0.0530
1281.00,0.0530
1280.00,0.0531
1279.00,0.0531
1278.00,0.0531
1277.00,0.0531
1276.00,0.0531
1275.00,0.0531
1274.00,0.0532
1273.00,0.0533
1272.00,0.0533
1271.00,0.0534
1270.00,0.0534
1269.00,0.0533
1268.00,0.0533
1267.00,0.0533
1266.00,0.0533
1265.00,0.0532
1264.00,0.0532
1263.00,0.0532
1262.00,0.0532
1261.00,0.0533
1260.00,0.0533
1259.00,0.0534
1258.00,0.0534
1257.00,0.0535
1256.00,0.0535
1255.00,0.0535
1254.00,0.0536
1253.00,0.0536
1252.00,0.0537
1251.00,0.0538
1250.00,0.0538
1249.00,0.0539
1248.00,0.0539
1247.00,0.0539
1246.00,0.0539
1245.00,0.0539
1244.00,0.0539
1243.00,0.0538
1242.00,0.0538
1241.00,0.0538
1240.00,0.0537
1239.00,0.0537
1238.00,0.0536
1237.00,0.0536
1236.00,0.0536
1235.00,0.0535
1234.00,0.0534
1233.00,0.0534
1232.00,0.0534
1231.00,0.0534
1230.00,0.0534
1229.00,0.0534
1228.00,0.0534
1227.00,0.0534
1226.00,0.0533
1225.00,0.0533
1224.00,0.0532
1223.00,0.0532
1222.00,0.0531
1221.00,0.0530
1220.00,0.0529
1219.00,0.0528
1218.00,0.0528
1217.00,0.0527
1216.00,0.0526
1215.00,0.0525
1214.00,0.0524
1213.00,0.0523
1212.00,0.0523
1211.00,0.0523
1210.00,0.0522
1209.00,0.0522
1208.00,0.0522
1207.00,0.0521
1206.00,0.0520
1205.00,0.0519
1204.00,0.0519
1203.00,0.0518
1202.00,0.0517
1201.00,0.0517
1200.00,0.0516
1199.00,0.0515
1198.00,0.0514
1197.00,0.0513
1196.00,0.0512
1195.00,0.0511
1194.00,0.0511
1193.00,0.0510
1192.00,0.0510
1191.00,0.0510
1190.00,0.0510
1189.00,0.0510
1188.00,0.0510
1187.00,0.0509
1186.00,0.0508
1185.00,0.0507
1184.00,0.0507
1183.00,0.0506
1182.00,0.0505
1181.00,0.0503
1180.00,0.0503
1179.00,0.0503
1178.00,0.0503
1177.00,0.0502
1176.00,0.0502
1175.00,0.0502
1174.00,0.0501
1173.00,0.0500
1172.00,0.0499
1171.00,0.0498
1170.00,0.0498
1169.00,0.0498
1168.00,0.0498
1167.00,0.0498
1166.00,0.0498
1165.00,0.0497
1164.00,0.0496
1163.00,0.0495
1162.00,0.0495
1161.00,0.0494
1160.00,0.0495
1159.00,0.0495
1158.00,0.0495
1157.00,0.0494
1156.00,0.0493
1155.00,0.0493
1154.00,0.0493
1153.00,0.0493
1152.00,0.0492
1151.00,0.0491
1150.00,0.0491
1149.00,0.0491
1148.00,0.0491
1147.00,0.0492
1146.00,0.0491
1145.00,0.0491
1144.00,0.0490
1143.00,0.0489
1142.00,0.0488
1141.00,0.0487
1140.00,0.0486
1139.00,0.0486
1138.00,0.0486
1137.00,0.0486
1136.00,0.0487
1135.00,0.0487
1134.00,0.0487
1133.00,0.0487
1132.00,0.0486
1131.00,0.0486
1130.00,0.0486
1129.00,0.0486
1128.00,0.0486
1127.00,0.0487
1126.00,0.0487
1125.00,0.0486
1124.00,0.0486
1123.00,0.0485
1122.00,0.0484
1121.00,0.0484
1120.00,0.0484
1119.00,0.0486
1118.00,0.0487
1117.00,0.0488
1116.00,0.0488
1115.00,0.0488
1114.00,0.0487
1113.00,0.0486
1112.00,0.0486
1111.00,0.0485
1110.00,0.0486
1109.00,0.0486
1108.00,0.0487
1107.00,0.0488
1106.00,0.0488
1105.00,0.0489
1104.00,0.0490
1103.00,0.0491
1102.00,0.0492
1101.00,0.0491
1100.00,0.0490
1099.00,0.0489
1098.00,0.0489
1097.00,0.0489
1096.00,0.0489
1095.00,0.0488
1094.00,0.0488
1093.00,0.0488
1092.00,0.0489
1091.00,0.0490
1090.00,0.0490
1089.00,0.0490
1088.00,0.0490
1087.00,0.0489
1086.00,0.0488
1085.00,0.0488
1084.00,0.0488
1083.00,0.0490
1082.00,0.0490
1081.00,0.0490
1080.00,0.0489
1079.00,0.0488
1078.00,0.0488
1077.00,0.0488
1076.00,0.0489
1075.00,0.0490
1074.00,0.0491
1073.00,0.0492
1072.00,0.0492
1071.00,0.0493
1070.00,0.0492
1069.00,0.0492
1068.00,0.0492
1067.00,0.0491
1066.00,0.0491
1065.00,0.0491
1064.00,0.0491
1063.00,0.0491
1062.00,0.0492
1061.00,0.0493
1060.00,0.0493
1059.00,0.0494
1058.00,0.0494
1057.00,0.0493
1056.00,0.0492
1055.00,0.0492
1054.00,0.0493
1053.00,0.0495
1052.00,0.0497
1051.00,0.0500
1050.00,0.0501
1049.00,0.0502
1048.00,0.0502
1047.00,0.0502
1046.00,0.0502
1045.00,0.0502
1044.00,0.0503
1043.00,0.0502
1042.00,0.0502
1041.00,0.0502
1040.00,0.0502
1039.00,0.0502
1038.00,0.0502
1037.00,0.0502
1036.00,0.0503
1035.00,0.0503
1034.00,0.0504
1033.00,0.0505
1032.00,0.0505
1031.00,0.0504
1030.00,0.0502
1029.00,0.0500
1028.00,0.0499
1027.00,0.0497
1026.00,0.0496
1025.00,0.0495
1024.00,0.0494
1023.00,0.0494
1022.00,0.0494
1021.00,0.0493
1020.00,0.0492
1019.00,0.0492
1018.00,0.0491
1017.00,0.0491
1016.00,0.0490
1015.00,0.0490
1014.00,0.0489
1013.00,0.0489
1012.00,0.0490
1011.00,0.0491
1010.00,0.0492
1009.00,0.0492
1008.00,0.0491
1007.00,0.0491
1006.00,0.0490
1005.00,0.0490
1004.00,0.0489
1003.00,0.0488
1002.00,0.0487
1001.00,0.0486
1000.00,0.0485
999.00,0.0484
998.00,0.0483
997.00,0.0481
996.00,0.0479
995.00,0.0478
994.00,0.0476
993.00,0.0476
992.00,0.0476
991.00,0.0475
990.00,0.0474
989.00,0.0473
988.00,0.0472
987.00,0.0472
986.00,0.0472
985.00,0.0472
984.00,0.0472
983.00,0.0471
982.00,0.0470
981.00,0.0468
980.00,0.0467
979.00,0.0466
978.00,0.0465
977.00,0.0465
976.00,0.0464
975.00,0.0464
974.00,0.0464
973.00,0.0464
972.00,0.0463
971.00,0.0462
970.00,0.0462
969.00,0.0462
968.00,0.0462
967.00,0.0462
966.00,0.0462
965.00,0.0461
964.00,0.0461
963.00,0.0460
962.00,0.0459
961.00,0.0459
960.00,0.0458
959.00,0.0457
958.00,0.0457
957.00,0.0457
956.00,0.0458
955.00,0.0459
954.00,0.0460
953.00,0.0461
952.00,0.0461
951.00,0.0461
950.00,0.0460
949.00,0.0460
948.00,0.0461
947.00,0.0461
946.00,0.0463
945.00,0.0464
944.00,0.0465
943.00,0.0465
942.00,0.0465
941.00,0.0465
940.00,0.0466
939.00,0.0466
938.00,0.0466
937.00,0.0466
936.00,0.0467
935.00,0.0468
934.00,0.0470
933.00,0.0470
932.00,0.0469
931.00,0.0468
930.00,0.0468
929.00,0.0468
928.00,0.0470
927.00,0.0471
926.00,0.0472
925.00,0.0473
924.00,0.0474
923.00,0.0476
922.00,0.0477
921.00,0.0477
920.00,0.0478
919.00,0.0478
918.00,0.0479
917.00,0.0481
916.00,0.0482
915.00,0.0482
914.00,0.0483
913.00,0.0483
912.00,0.0484
911.00,0.0486
910.00,0.0487
909.00,0.0488
908.00,0.0488
907.00,0.0488
906.00,0.0488
905.00,0.0487
904.00,0.0486
903.00,0.0486
902.00,0.0486
901.00,0.0487
900.00,0.0488
899.00,0.0489
898.00,0.0490
897.00,0.0490
896.00,0.0489
895.00,0.0488
894.00,0.0488
893.00,0.0488
892.00,0.0489
891.00,0.0490
890.00,0.0492
889.00,0.0493
888.00,0.0494
887.00,0.0493
886.00,0.0493
885.00,0.0492
884.00,0.0493
883.00,0.0493
882.00,0.0494
881.00,0.0495
880.00,0.0496
879.00,0.0496
878.00,0.0496
877.00,0.0495
876.00,0.0496
875.00,0.0496
874.00,0.0496
873.00,0.0495
872.00,0.0494
871.00,0.0493
870.00,0.0493
869.00,0.0493
868.00,0.0494
867.00,0.0495
866.00,0.0495
865.00,0.0495
864.00,0.0495
863.00,0.0495
862.00,0.0497
861.00,0.0498
860.00,0.0499
859.00,0.0500
858.00,0.0500
857.00,0.0500
856.00,0.0501
855.00,0.0503
854.00,0.0505
853.00,0.0506
852.00,0.0507
851.00,0.0508
850.00,0.0508
849.00,0.0509
848.00,0.0510
847.00,0.0512
846.00,0.0513
845.00,0.0514
844.00,0.0515
843.00,0.0516
842.00,0.0517
841.00,0.0518
840.00,0.0519
839.00,0.0521
838.00,0.0525
837.00,0.0529
836.00,0.0530
835.00,0.0531
834.00,0.0531
833.00,0.0531
832.00,0.0532
831.00,0.0534
830.00,0.0536
829.00,0.0538
828.00,0.0538
827.00,0.0537
826.00,0.0535
825.00,0.0534
824.00,0.0534
823.00,0.0537
822.00,0.0540
821.00,0.0544
820.00,0.0547
819.00,0.0548
818.00,0.0549
817.00,0.0548
816.00,0.0548
815.00,0.0548
814.00,0.0548
813.00,0.0548
812.00,0.0548
811.00,0.0549
810.00,0.0551
809.00,0.0553
808.00,0.0554
807.00,0.0555
806.00,0.0556
805.00,0.0557
804.00,0.0558
803.00,0.0559
802.00,0.0560
801.00,0.0562
800.00,0.0563
799.00,0.0564
798.00,0.0564
797.00,0.0564
796.00,0.0566
795.00,0.0568
794.00,0.0570
793.00,0.0573
792.00,0.0575
791.00,0.0578
790.00,0.0579
789.00,0.0581
788.00,0.0582
787.00,0.0584
786.00,0.0584
785.00,0.0585
784.00,0.0586
783.00,0.0588
782.00,0.0591
781.00,0.0593
780.00,0.0594
779.00,0.0594
778.00,0.0593
777.00,0.0592
776.00,0.0593
775.00,0.0594
774.00,0.0595
773.00,0.0597
772.00,0.0599
771.00,0.0601
770.00,0.0602
769.00,0.0603
768.00,0.0602
767.00,0.0601
766.00,0.0600
765.00,0.0600
764.00,0.0601
763.00,0.0603
762.00,0.0606
761.00,0.0608
760.00,0.0612
759.00,0.0615
758.00,0.0617
757.00,0.0618
756.00,0.0618
755.00,0.0619
754.00,0.0619
753.00,0.0619
752.00,0.0620
751.00,0.0622
750.00,0.0623
749.00,0.0624
748.00,0.0623
747.00,0.0622
746.00,0.0622
745.00,0.0623
744.00,0.0623
743.00,0.0624
742.00,0.0625
741.00,0.0625
740.00,0.0624
739.00,0.0624
738.00,0.0625
737.00,0.0626
736.00,0.0627
735.00,0.0626
734.00,0.0625
733.00,0.0625
732.00,0.0628
731.00,0.0631
730.00,0.0633
729.00,0.0632
728.00,0.0631
727.00,0.0631
726.00,0.0632
725.00,0.0633
724.00,0.0635
723.00,0.0637
722.00,0.0638
721.00,0.0638
720.00,0.0638
719.00,0.0639
718.00,0.0639
717.00,0.0639
716.00,0.0640
715.00,0.0641
714.00,0.0643
713.00,0.0648
712.00,0.0653
711.00,0.0655
710.00,0.0655
709.00,0.0654
708.00,0.0654
707.00,0.0656
706.00,0.0660
705.00,0.0664
704.00,0.0666
703.00,0.0666
702.00,0.0663
701.00,0.0661
700.00,0.0661
699.00,0.0663
698.00,0.0666
697.00,0.0670
696.00,0.0672
695.00,0.0672
694.00,0.0670
693.00,0.0669
692.00,0.0669
691.00,0.0673
690.00,0.0676
689.00,0.0679
688.00,0.0680
687.00,0.0679
686.00,0.0677
685.00,0.0676
684.00,0.0676
683.00,0.0678
682.00,0.0681
681.00,0.0686
680.00,0.0689
679.00,0.0690
678.00,0.0690
677.00,0.0692
676.00,0.0697
675.00,0.0701
674.00,0.0704
673.00,0.0703
672.00,0.0701
671.00,0.0699
670.00,0.0700
669.00,0.0705
668.00,0.0717
667.00,0.0723
666.00,0.0719
665.00,0.0715
664.00,0.0714
663.00,0.0713
662.00,0.0711
661.00,0.0712
660.00,0.0719
659.00,0.0727
658.00,0.0732
657.00,0.0733
656.00,0.0733
655.00,0.0732
654.00,0.0731
653.00,0.0731
652.00,0.0731
651.00,0.0730
650.00,0.0729
