Created as New Dataset,Monday, April 03 2023
cm-1,A
4000.00,0.0047
3999.00,0.0048
3998.00,0.0048
3997.00,0.0047
3996.00,0.0047
3995.00,0.0047
3994.00,0.0046
3993.00,0.0046
3992.00,0.0046
3991.00,0.0047
3990.00,0.0047
3989.00,0.0046
3988.00,0.0046
3987.00,0.0046
3986.00,0.0046
3985.00,0.0046
3984.00,0.0046
3983.00,0.0047
3982.00,0.0047
3981.00,0.0047
3980.00,0.0046
3979.00,0.0046
3978.00,0.0046
3977.00,0.0046
3976.00,0.0045
3975.00,0.0045
3974.00,0.0045
3973.00,0.0045
3972.00,0.0046
3971.00,0.0046
3970.00,0.0046
3969.00,0.0046
3968.00,0.0046
3967.00,0.0046
3966.00,0.0045
3965.00,0.0045
3964.00,0.0045
3963.00,0.0046
3962.00,0.0046
3961.00,0.0046
3960.00,0.0046
3959.00,0.0045
3958.00,0.0045
3957.00,0.0045
3956.00,0.0045
3955.00,0.0044
3954.00,0.0044
3953.00,0.0044
3952.00,0.0044
3951.00,0.0045
3950.00,0.0046
3949.00,0.0047
3948.00,0.0047
3947.00,0.0047
3946.00,0.0048
3945.00,0.0047
3944.00,0.0046
3943.00,0.0045
3942.00,0.0044
3941.00,0.0044
3940.00,0.0044
3939.00,0.0044
3938.00,0.0044
3937.00,0.0044
3936.00,0.0044
3935.00,0.0044
3934.00,0.0045
3933.00,0.0045
3932.00,0.0045
3931.00,0.0046
3930.00,0.0046
3929.00,0.0046
3928.00,0.0046
3927.00,0.0046
3926.00,0.0046
3925.00,0.0045
3924.00,0.0046
3923.00,0.0046
3922.00,0.0047
3921.00,0.0046
3920.00,0.0046
3919.00,0.0046
3918.00,0.0046
3917.00,0.0046
3916.00,0.0046
3915.00,0.0045
3914.00,0.0045
3913.00,0.0044
3912.00,0.0043
3911.00,0.0043
3910.00,0.0043
3909.00,0.0044
3908.00,0.0045
3907.00,0.0046
3906.00,0.0046
3905.00,0.0046
3904.00,0.0047
3903.00,0.0048
3902.00,0.0050
3901.00,0.0050
3900.00,0.0049
3899.00,0.0048
3898.00,0.0047
3897.00,0.0046
3896.00,0.0046
3895.00,0.0046
3894.00,0.0046
3893.00,0.0046
3892.00,0.0045
3891.00,0.0044
3890.00,0.0044
3889.00,0.0044
3888.00,0.0044
3887.00,0.0043
3886.00,0.0042
3885.00,0.0043
3884.00,0.0044
3883.00,0.0045
3882.00,0.0045
3881.00,0.0043
3880.00,0.0042
3879.00,0.0043
3878.00,0.0045
3877.00,0.0046
3876.00,0.0047
3875.00,0.0046
3874.00,0.0045
3873.00,0.0045
3872.00,0.0046
3871.00,0.0046
3870.00,0.0045
3869.00,0.0045
3868.00,0.0046
3867.00,0.0046
3866.00,0.0046
3865.00,0.0045
3864.00,0.0046
3863.00,0.0046
3862.00,0.0047
3861.00,0.0046
3860.00,0.0046
3859.00,0.0046
3858.00,0.0046
3857.00,0.0047
3856.00,0.0047
3855.00,0.0046
3854.00,0.0045
3853.00,0.0045
3852.00,0.0046
3851.00,0.0046
3850.00,0.0044
3849.00,0.0043
3848.00,0.0042
3847.00,0.0042
3846.00,0.0042
3845.00,0.0042
3844.00,0.0042
3843.00,0.0043
3842.00,0.0044
3841.00,0.0045
3840.00,0.0047
3839.00,0.0047
3838.00,0.0046
3837.00,0.0046
3836.00,0.0045
3835.00,0.0045
3834.00,0.0044
3833.00,0.0044
3832.00,0.0044
3831.00,0.0043
3830.00,0.0043
3829.00,0.0043
3828.00,0.0042
3827.00,0.0041
3826.00,0.0041
3825.00,0.0043
3824.00,0.0045
3823.00,0.0046
3822.00,0.0045
3821.00,0.0045
3820.00,0.0045
3819.00,0.0045
3818.00,0.0046
3817.00,0.0045
3816.00,0.0044
3815.00,0.0044
3814.00,0.0044
3813.00,0.0044
3812.00,0.0043
3811.00,0.0042
3810.00,0.0041
3809.00,0.0041
3808.00,0.0041
3807.00,0.0041
3806.00,0.0042
3805.00,0.0045
3804.00,0.0047
3803.00,0.0047
3802.00,0.0046
3801.00,0.0045
3800.00,0.0044
3799.00,0.0044
3798.00,0.0043
3797.00,0.0042
3796.00,0.0041
3795.00,0.0041
3794.00,0.0041
3793.00,0.0041
3792.00,0.0041
3791.00,0.0041
3790.00,0.0041
3789.00,0.0041
3788.00,0.0041
3787.00,0.0041
3786.00,0.0042
3785.00,0.0042
3784.00,0.0043
3783.00,0.0043
3782.00,0.0043
3781.00,0.0042
3780.00,0.0041
3779.00,0.0041
3778.00,0.0041
3777.00,0.0041
3776.00,0.0041
3775.00,0.0040
3774.00,0.0040
3773.00,0.0040
3772.00,0.0040
3771.00,0.0040
3770.00,0.0040
3769.00,0.0041
3768.00,0.0041
3767.00,0.0041
3766.00,0.0041
3765.00,0.0040
3764.00,0.0040
3763.00,0.0041
3762.00,0.0041
3761.00,0.0042
3760.00,0.0041
3759.00,0.0041
3758.00,0.0041
3757.00,0.0041
3756.00,0.0041
3755.00,0.0042
3754.00,0.0042
3753.00,0.0041
3752.00,0.0041
3751.00,0.0042
3750.00,0.0044
3749.00,0.0045
3748.00,0.0048
3747.00,0.0050
3746.00,0.0050
3745.00,0.0048
3744.00,0.0045
3743.00,0.0043
3742.00,0.0042
3741.00,0.0042
3740.00,0.0043
3739.00,0.0044
3738.00,0.0045
3737.00,0.0046
3736.00,0.0046
3735.00,0.0046
3734.00,0.0045
3733.00,0.0044
3732.00,0.0042
3731.00,0.0041
3730.00,0.0041
3729.00,0.0041
3728.00,0.0041
3727.00,0.0041
3726.00,0.0040
3725.00,0.0040
3724.00,0.0040
3723.00,0.0040
3722.00,0.0040
3721.00,0.0040
3720.00,0.0041
3719.00,0.0040
3718.00,0.0040
3717.00,0.0039
3716.00,0.0040
3715.00,0.0040
3714.00,0.0041
3713.00,0.0042
3712.00,0.0043
3711.00,0.0043
3710.00,0.0042
3709.00,0.0041
3708.00,0.0041
3707.00,0.0041
3706.00,0.0043
3705.00,0.0044
3704.00,0.0044
3703.00,0.0043
3702.00,0.0042
3701.00,0.0042
3700.00,0.0043
3699.00,0.0044
3698.00,0.0044
3697.00,0.0043
3696.00,0.0042
3695.00,0.0042
3694.00,0.0042
3693.00,0.0043
3692.00,0.0044
3691.00,0.0045
3690.00,0.0047
3689.00,0.0048
3688.00,0.0047
3687.00,0.0046
3686.00,0.0045
3685.00,0.0043
3684.00,0.0042
3683.00,0.0041
3682.00,0.0041
3681.00,0.0040
3680.00,0.0040
3679.00,0.0040
3678.00,0.0041
3677.00,0.0040
3676.00,0.0040
3675.00,0.0040
3674.00,0.0041
3673.00,0.0043
3672.00,0.0043
3671.00,0.0043
3670.00,0.0044
3669.00,0.0044
3668.00,0.0044
3667.00,0.0044
3666.00,0.0043
3665.00,0.0041
3664.00,0.0041
3663.00,0.0041
3662.00,0.0041
3661.00,0.0042
3660.00,0.0044
3659.00,0.0045
3658.00,0.0046
3657.00,0.0046
3656.00,0.0046
3655.00,0.0047
3654.00,0.0049
3653.00,0.0051
3652.00,0.0051
3651.00,0.0050
3650.00,0.0049
3649.00,0.0051
3648.00,0.0052
3647.00,0.0052
3646.00,0.0051
3645.00,0.0050
3644.00,0.0050
3643.00,0.0050
3642.00,0.0049
3641.00,0.0049
3640.00,0.0050
3639.00,0.0050
3638.00,0.0050
3637.00,0.0051
3636.00,0.0052
3635.00,0.0052
3634.00,0.0053
3633.00,0.0054
3632.00,0.0056
3631.00,0.0057
3630.00,0.0057
3629.00,0.0058
3628.00,0.0059
3627.00,0.0059
3626.00,0.0058
3625.00,0.0056
3624.00,0.0055
3623.00,0.0055
3622.00,0.0056
3621.00,0.0057
3620.00,0.0059
3619.00,0.0060
3618.00,0.0061
3617.00,0.0061
3616.00,0.0062
3615.00,0.0062
3614.00,0.0061
3613.00,0.0061
3612.00,0.0061
3611.00,0.0062
3610.00,0.0063
3609.00,0.0063
3608.00,0.0064
3607.00,0.0063
3606.00,0.0062
3605.00,0.0061
3604.00,0.0060
3603.00,0.0060
3602.00,0.0061
3601.00,0.0063
3600.00,0.0064
3599.00,0.0064
3598.00,0.0063
3597.00,0.0062
3596.00,0.0062
3595.00,0.0062
3594.00,0.0062
3593.00,0.0062
3592.00,0.0062
3591.00,0.0063
3590.00,0.0063
3589.00,0.0064
3588.00,0.0065
3587.00,0.0065
3586.00,0.0066
3585.00,0.0066
3584.00,0.0065
3583.00,0.0065
3582.00,0.0064
3581.00,0.0064
3580.00,0.0063
3579.00,0.0064
3578.00,0.0064
3577.00,0.0065
3576.00,0.0065
3575.00,0.0066
3574.00,0.0066
3573.00,0.0066
3572.00,0.0067
3571.00,0.0067
3570.00,0.0067
3569.00,0.0067
3568.00,0.0067
3567.00,0.0069
3566.00,0.0070
3565.00,0.0069
3564.00,0.0068
3563.00,0.0068
3562.00,0.0067
3561.00,0.0068
3560.00,0.0068
3559.00,0.0068
3558.00,0.0069
3557.00,0.0069
3556.00,0.0070
3555.00,0.0070
3554.00,0.0071
3553.00,0.0071
3552.00,0.0071
3551.00,0.0072
3550.00,0.0073
3549.00,0.0073
3548.00,0.0073
3547.00,0.0073
3546.00,0.0074
3545.00,0.0075
3544.00,0.0075
3543.00,0.0075
3542.00,0.0075
3541.00,0.0074
3540.00,0.0074
3539.00,0.0072
3538.00,0.0071
3537.00,0.0070
3536.00,0.0070
3535.00,0.0071
3534.00,0.0072
3533.00,0.0074
3532.00,0.0074
3531.00,0.0074
3530.00,0.0074
3529.00,0.0073
3528.00,0.0073
3527.00,0.0073
3526.00,0.0073
3525.00,0.0074
3524.00,0.0075
3523.00,0.0076
3522.00,0.0076
3521.00,0.0075
3520.00,0.0074
3519.00,0.0073
3518.00,0.0072
3517.00,0.0072
3516.00,0.0072
3515.00,0.0072
3514.00,0.0073
3513.00,0.0075
3512.00,0.0076
3511.00,0.0077
3510.00,0.0076
3509.00,0.0075
3508.00,0.0075
3507.00,0.0075
3506.00,0.0076
3505.00,0.0076
3504.00,0.0077
3503.00,0.0077
3502.00,0.0078
3501.00,0.0078
3500.00,0.0078
3499.00,0.0078
3498.00,0.0078
3497.00,0.0079
3496.00,0.0079
3495.00,0.0078
3494.00,0.0077
3493.00,0.0077
3492.00,0.0077
3491.00,0.0077
3490.00,0.0077
3489.00,0.0077
3488.00,0.0077
3487.00,0.0077
3486.00,0.0077
3485.00,0.0077
3484.00,0.0077
3483.00,0.0078
3482.00,0.0078
3481.00,0.0078
3480.00,0.0078
3479.00,0.0078
3478.00,0.0078
3477.00,0.0078
3476.00,0.0079
3475.00,0.0079
3474.00,0.0080
3473.00,0.0080
3472.00,0.0080
3471.00,0.0080
3470.00,0.0081
3469.00,0.0081
3468.00,0.0081
3467.00,0.0081
3466.00,0.0081
3465.00,0.0082
3464.00,0.0082
3463.00,0.0082
3462.00,0.0081
3461.00,0.0080
3460.00,0.0080
3459.00,0.0081
3458.00,0.0082
3457.00,0.0082
3456.00,0.0081
3455.00,0.0080
3454.00,0.0080
3453.00,0.0080
3452.00,0.0081
3451.00,0.0082
3450.00,0.0082
3449.00,0.0082
3448.00,0.0082
3447.00,0.0082
3446.00,0.0082
3445.00,0.0083
3444.00,0.0084
3443.00,0.0084
3442.00,0.0083
3441.00,0.0083
3440.00,0.0082
3439.00,0.0082
3438.00,0.0082
3437.00,0.0082
3436.00,0.0082
3435.00,0.0081
3434.00,0.0081
3433.00,0.0081
3432.00,0.0082
3431.00,0.0082
3430.00,0.0082
3429.00,0.0082
3428.00,0.0081
3427.00,0.0081
3426.00,0.0082
3425.00,0.0083
3424.00,0.0085
3423.00,0.0086
3422.00,0.0086
3421.00,0.0086
3420.00,0.0085
3419.00,0.0085
3418.00,0.0085
3417.00,0.0084
3416.00,0.0084
3415.00,0.0083
3414.00,0.0083
3413.00,0.0083
3412.00,0.0084
3411.00,0.0084
3410.00,0.0084
3409.00,0.0085
3408.00,0.0085
3407.00,0.0085
3406.00,0.0085
3405.00,0.0085
3404.00,0.0084
3403.00,0.0084
3402.00,0.0083
3401.00,0.0084
3400.00,0.0084
3399.00,0.0084
3398.00,0.0084
3397.00,0.0084
3396.00,0.0084
3395.00,0.0084
3394.00,0.0084
3393.00,0.0085
3392.00,0.0085
3391.00,0.0086
3390.00,0.0086
3389.00,0.0086
3388.00,0.0086
3387.00,0.0085
3386.00,0.0085
3385.00,0.0084
3384.00,0.0085
3383.00,0.0085
3382.00,0.0085
3381.00,0.0086
3380.00,0.0086
3379.00,0.0086
3378.00,0.0086
3377.00,0.0086
3376.00,0.0086
3375.00,0.0086
3374.00,0.0085
3373.00,0.0085
3372.00,0.0084
3371.00,0.0084
3370.00,0.0083
3369.00,0.0084
3368.00,0.0084
3367.00,0.0084
3366.00,0.0083
3365.00,0.0083
3364.00,0.0082
3363.00,0.0083
3362.00,0.0084
3361.00,0.0085
3360.00,0.0087
3359.00,0.0087
3358.00,0.0087
3357.00,0.0086
3356.00,0.0085
3355.00,0.0085
3354.00,0.0085
3353.00,0.0085
3352.00,0.0085
3351.00,0.0085
3350.00,0.0086
3349.00,0.0086
3348.00,0.0086
3347.00,0.0085
3346.00,0.0085
3345.00,0.0085
3344.00,0.0085
3343.00,0.0084
3342.00,0.0084
3341.00,0.0085
3340.00,0.0085
3339.00,0.0085
3338.00,0.0085
3337.00,0.0085
3336.00,0.0085
3335.00,0.0085
3334.00,0.0085
3333.00,0.0085
3332.00,0.0084
3331.00,0.0084
3330.00,0.0083
3329.00,0.0083
3328.00,0.0083
3327.00,0.0083
3326.00,0.0083
3325.00,0.0084
3324.00,0.0085
3323.00,0.0084
3322.00,0.0084
3321.00,0.0084
3320.00,0.0083
3319.00,0.0083
3318.00,0.0083
3317.00,0.0083
3316.00,0.0083
3315.00,0.0083
3314.00,0.0083
3313.00,0.0082
3312.00,0.0082
3311.00,0.0082
3310.00,0.0083
3309.00,0.0084
3308.00,0.0084
3307.00,0.0085
3306.00,0.0084
3305.00,0.0084
3304.00,0.0083
3303.00,0.0083
3302.00,0.0083
3301.00,0.0082
3300.00,0.0082
3299.00,0.0082
3298.00,0.0082
3297.00,0.0082
3296.00,0.0083
3295.00,0.0083
3294.00,0.0084
3293.00,0.0084
3292.00,0.0083
3291.00,0.0083
3290.00,0.0083
3289.00,0.0083
3288.00,0.0083
3287.00,0.0083
3286.00,0.0084
3285.00,0.0084
3284.00,0.0084
3283.00,0.0084
3282.00,0.0084
3281.00,0.0084
3280.00,0.0083
3279.00,0.0083
3278.00,0.0083
3277.00,0.0083
3276.00,0.0083
3275.00,0.0083
3274.00,0.0083
3273.00,0.0083
3272.00,0.0083
3271.00,0.0084
3270.00,0.0084
3269.00,0.0085
3268.00,0.0085
3267.00,0.0084
3266.00,0.0084
3265.00,0.0083
3264.00,0.0082
3263.00,0.0081
3262.00,0.0082
3261.00,0.0082
3260.00,0.0083
3259.00,0.0083
3258.00,0.0083
3257.00,0.0083
3256.00,0.0082
3255.00,0.0082
3254.00,0.0082
3253.00,0.0083
3252.00,0.0083
3251.00,0.0083
3250.00,0.0083
3249.00,0.0083
3248.00,0.0082
3247.00,0.0082
3246.00,0.0082
3245.00,0.0082
3244.00,0.0082
3243.00,0.0082
3242.00,0.0082
3241.00,0.0082
3240.00,0.0082
3239.00,0.0082
3238.00,0.0082
3237.00,0.0083
3236.00,0.0084
3235.00,0.0085
3234.00,0.0085
3233.00,0.0085
3232.00,0.0084
3231.00,0.0083
3230.00,0.0083
3229.00,0.0082
3228.00,0.0082
3227.00,0.0081
3226.00,0.0081
3225.00,0.0082
3224.00,0.0082
3223.00,0.0082
3222.00,0.0082
3221.00,0.0082
3220.00,0.0081
3219.00,0.0081
3218.00,0.0081
3217.00,0.0081
3216.00,0.0082
3215.00,0.0082
3214.00,0.0083
3213.00,0.0083
3212.00,0.0082
3211.00,0.0081
3210.00,0.0081
3209.00,0.0081
3208.00,0.0081
3207.00,0.0081
3206.00,0.0081
3205.00,0.0081
3204.00,0.0082
3203.00,0.0082
3202.00,0.0082
3201.00,0.0082
3200.00,0.0082
3199.00,0.0082
3198.00,0.0082
3197.00,0.0082
3196.00,0.0081
3195.00,0.0081
3194.00,0.0080
3193.00,0.0080
3192.00,0.0080
3191.00,0.0080
3190.00,0.0080
3189.00,0.0079
3188.00,0.0079
3187.00,0.0078
3186.00,0.0078
3185.00,0.0078
3184.00,0.0079
3183.00,0.0080
3182.00,0.0080
3181.00,0.0080
3180.00,0.0080
3179.00,0.0079
3178.00,0.0078
3177.00,0.0077
3176.00,0.0077
3175.00,0.0078
3174.00,0.0078
3173.00,0.0079
3172.00,0.0079
3171.00,0.0079
3170.00,0.0078
3169.00,0.0078
3168.00,0.0078
3167.00,0.0078
3166.00,0.0078
3165.00,0.0079
3164.00,0.0080
3163.00,0.0081
3162.00,0.0080
3161.00,0.0079
3160.00,0.0078
3159.00,0.0077
3158.00,0.0076
3157.00,0.0075
3156.00,0.0076
3155.00,0.0076
3154.00,0.0077
3153.00,0.0078
3152.00,0.0078
3151.00,0.0077
3150.00,0.0077
3149.00,0.0076
3148.00,0.0077
3147.00,0.0077
3146.00,0.0077
3145.00,0.0076
3144.00,0.0076
3143.00,0.0076
3142.00,0.0076
3141.00,0.0076
3140.00,0.0076
3139.00,0.0076
3138.00,0.0076
3137.00,0.0076
3136.00,0.0077
3135.00,0.0077
3134.00,0.0076
3133.00,0.0076
3132.00,0.0076
3131.00,0.0077
3130.00,0.0077
3129.00,0.0076
3128.00,0.0076
3127.00,0.0075
3126.00,0.0075
3125.00,0.0076
3124.00,0.0076
3123.00,0.0076
3122.00,0.0076
3121.00,0.0075
3120.00,0.0075
3119.00,0.0075
3118.00,0.0076
3117.00,0.0076
3116.00,0.0075
3115.00,0.0075
3114.00,0.0075
3113.00,0.0074
3112.00,0.0074
3111.00,0.0074
3110.00,0.0074
3109.00,0.0074
3108.00,0.0074
3107.00,0.0074
3106.00,0.0075
3105.00,0.0075
3104.00,0.0075
3103.00,0.0075
3102.00,0.0074
3101.00,0.0073
3100.00,0.0073
3099.00,0.0073
3098.00,0.0072
3097.00,0.0073
3096.00,0.0073
3095.00,0.0074
3094.00,0.0075
3093.00,0.0076
3092.00,0.0075
3091.00,0.0075
3090.00,0.0074
3089.00,0.0072
3088.00,0.0071
3087.00,0.0071
3086.00,0.0072
3085.00,0.0072
3084.00,0.0073
3083.00,0.0073
3082.00,0.0073
3081.00,0.0073
3080.00,0.0073
3079.00,0.0073
3078.00,0.0073
3077.00,0.0073
3076.00,0.0073
3075.00,0.0073
3074.00,0.0073
3073.00,0.0073
3072.00,0.0073
3071.00,0.0073
3070.00,0.0074
3069.00,0.0074
3068.00,0.0074
3067.00,0.0073
3066.00,0.0073
3065.00,0.0072
3064.00,0.0071
3063.00,0.0070
3062.00,0.0070
3061.00,0.0071
3060.00,0.0071
3059.00,0.0071
3058.00,0.0071
3057.00,0.0071
3056.00,0.0071
3055.00,0.0071
3054.00,0.0071
3053.00,0.0070
3052.00,0.0071
3051.00,0.0071
3050.00,0.0071
3049.00,0.0071
3048.00,0.0072
3047.00,0.0072
3046.00,0.0072
3045.00,0.0071
3044.00,0.0071
3043.00,0.0070
3042.00,0.0069
3041.00,0.0069
3040.00,0.0069
3039.00,0.0068
3038.00,0.0068
3037.00,0.0069
3036.00,0.0069
3035.00,0.0069
3034.00,0.0069
3033.00,0.0069
3032.00,0.0069
3031.00,0.0069
3030.00,0.0068
3029.00,0.0067
3028.00,0.0067
3027.00,0.0067
3026.00,0.0067
3025.00,0.0067
3024.00,0.0067
3023.00,0.0067
3022.00,0.0067
3021.00,0.0067
3020.00,0.0066
3019.00,0.0066
3018.00,0.0065
3017.00,0.0064
3016.00,0.0064
3015.00,0.0063
3014.00,0.0063
3013.00,0.0062
3012.00,0.0062
3011.00,0.0061
3010.00,0.0061
3009.00,0.0059
3008.00,0.0058
3007.00,0.0056
3006.00,0.0055
3005.00,0.0054
3004.00,0.0053
3003.00,0.0052
3002.00,0.0050
3001.00,0.0049
3000.00,0.0047
2999.00,0.0046
2998.00,0.0045
2997.00,0.0044
2996.00,0.0043
2995.00,0.0043
2994.00,0.0042
2993.00,0.0042
2992.00,0.0041
2991.00,0.0040
2990.00,0.0039
2989.00,0.0038
2988.00,0.0037
2987.00,0.0035
2986.00,0.0032
2985.00,0.0029
2984.00,0.0025
2983.00,0.0022
2982.00,0.0020
2981.00,0.0020
2980.00,0.0022
2979.00,0.0024
2978.00,0.0026
2977.00,0.0028
2976.00,0.0030
2975.00,0.0030
2974.00,0.0030
2973.00,0.0029
2972.00,0.0028
2971.00,0.0028
2970.00,0.0029
2969.00,0.0031
2968.00,0.0033
2967.00,0.0034
2966.00,0.0035
2965.00,0.0036
2964.00,0.0036
2963.00,0.0037
2962.00,0.0038
2961.00,0.0039
2960.00,0.0039
2959.00,0.0039
2958.00,0.0039
2957.00,0.0039
2956.00,0.0040
2955.00,0.0042
2954.00,0.0042
2953.00,0.0043
2952.00,0.0044
2951.00,0.0044
2950.00,0.0045
2949.00,0.0045
2948.00,0.0046
2947.00,0.0046
2946.00,0.0046
2945.00,0.0047
2944.00,0.0048
2943.00,0.0049
2942.00,0.0049
2941.00,0.0049
2940.00,0.0049
2939.00,0.0048
2938.00,0.0048
2937.00,0.0048
2936.00,0.0048
2935.00,0.0048
2934.00,0.0048
2933.00,0.0048
2932.00,0.0048
2931.00,0.0048
2930.00,0.0048
2929.00,0.0047
2928.00,0.0047
2927.00,0.0046
2926.00,0.0046
2925.00,0.0045
2924.00,0.0045
2923.00,0.0044
2922.00,0.0044
2921.00,0.0043
2920.00,0.0042
2919.00,0.0041
2918.00,0.0040
2917.00,0.0039
2916.00,0.0039
2915.00,0.0040
2914.00,0.0041
2913.00,0.0042
2912.00,0.0043
2911.00,0.0044
2910.00,0.0044
2909.00,0.0044
2908.00,0.0044
2907.00,0.0044
2906.00,0.0044
2905.00,0.0044
2904.00,0.0044
2903.00,0.0044
2902.00,0.0044
2901.00,0.0044
2900.00,0.0044
2899.00,0.0043
2898.00,0.0043
2897.00,0.0043
2896.00,0.0043
2895.00,0.0043
2894.00,0.0042
2893.00,0.0042
2892.00,0.0042
2891.00,0.0042
2890.00,0.0042
2889.00,0.0042
2888.00,0.0042
2887.00,0.0043
2886.00,0.0043
2885.00,0.0042
2884.00,0.0042
2883.00,0.0042
2882.00,0.0042
2881.00,0.0042
2880.00,0.0043
2879.00,0.0043
2878.00,0.0044
2877.00,0.0044
2876.00,0.0045
2875.00,0.0044
2874.00,0.0044
2873.00,0.0043
2872.00,0.0044
2871.00,0.0044
2870.00,0.0044
2869.00,0.0045
2868.00,0.0045
2867.00,0.0045
2866.00,0.0045
2865.00,0.0045
2864.00,0.0046
2863.00,0.0046
2862.00,0.0046
2861.00,0.0046
2860.00,0.0046
2859.00,0.0047
2858.00,0.0048
2857.00,0.0048
2856.00,0.0048
2855.00,0.0047
2854.00,0.0047
2853.00,0.0047
2852.00,0.0047
2851.00,0.0047
2850.00,0.0048
2849.00,0.0048
2848.00,0.0048
2847.00,0.0048
2846.00,0.0048
2845.00,0.0048
2844.00,0.0048
2843.00,0.0049
2842.00,0.0049
2841.00,0.0048
2840.00,0.0048
2839.00,0.0048
2838.00,0.0047
2837.00,0.0048
2836.00,0.0048
2835.00,0.0049
2834.00,0.0050
2833.00,0.0049
2832.00,0.0049
2831.00,0.0048
2830.00,0.0048
2829.00,0.0048
2828.00,0.0048
2827.00,0.0049
2826.00,0.0049
2825.00,0.0049
2824.00,0.0049
2823.00,0.0049
2822.00,0.0049
2821.00,0.0048
2820.00,0.0048
2819.00,0.0047
2818.00,0.0047
2817.00,0.0046
2816.00,0.0046
2815.00,0.0046
2814.00,0.0046
2813.00,0.0046
2812.00,0.0046
2811.00,0.0046
2810.00,0.0046
2809.00,0.0047
2808.00,0.0047
2807.00,0.0047
2806.00,0.0047
2805.00,0.0047
2804.00,0.0047
2803.00,0.0047
2802.00,0.0046
2801.00,0.0046
2800.00,0.0047
2799.00,0.0047
2798.00,0.0046
2797.00,0.0046
2796.00,0.0046
2795.00,0.0046
2794.00,0.0046
2793.00,0.0046
2792.00,0.0046
2791.00,0.0046
2790.00,0.0046
2789.00,0.0046
2788.00,0.0046
2787.00,0.0046
2786.00,0.0045
2785.00,0.0045
2784.00,0.0045
2783.00,0.0044
2782.00,0.0044
2781.00,0.0043
2780.00,0.0043
2779.00,0.0043
2778.00,0.0044
2777.00,0.0044
2776.00,0.0045
2775.00,0.0045
2774.00,0.0045
2773.00,0.0045
2772.00,0.0044
2771.00,0.0044
2770.00,0.0043
2769.00,0.0042
2768.00,0.0042
2767.00,0.0042
2766.00,0.0042
2765.00,0.0042
2764.00,0.0043
2763.00,0.0043
2762.00,0.0043
2761.00,0.0043
2760.00,0.0043
2759.00,0.0043
2758.00,0.0043
2757.00,0.0042
2756.00,0.0042
2755.00,0.0042
2754.00,0.0042
2753.00,0.0042
2752.00,0.0042
2751.00,0.0042
2750.00,0.0043
2749.00,0.0043
2748.00,0.0043
2747.00,0.0043
2746.00,0.0043
2745.00,0.0043
2744.00,0.0043
2743.00,0.0043
2742.00,0.0042
2741.00,0.0042
2740.00,0.0041
2739.00,0.0041
2738.00,0.0040
2737.00,0.0040
2736.00,0.0040
2735.00,0.0040
2734.00,0.0041
2733.00,0.0041
2732.00,0.0041
2731.00,0.0041
2730.00,0.0041
2729.00,0.0041
2728.00,0.0040
2727.00,0.0040
2726.00,0.0040
2725.00,0.0041
2724.00,0.0041
2723.00,0.0041
2722.00,0.0041
2721.00,0.0040
2720.00,0.0040
2719.00,0.0040
2718.00,0.0040
2717.00,0.0040
2716.00,0.0040
2715.00,0.0040
2714.00,0.0040
2713.00,0.0040
2712.00,0.0040
2711.00,0.0040
2710.00,0.0040
2709.00,0.0040
2708.00,0.0039
2707.00,0.0039
2706.00,0.0039
2705.00,0.0039
2704.00,0.0039
2703.00,0.0039
2702.00,0.0038
2701.00,0.0038
2700.00,0.0038
2699.00,0.0038
2698.00,0.0038
2697.00,0.0038
2696.00,0.0038
2695.00,0.0038
2694.00,0.0038
2693.00,0.0039
2692.00,0.0039
2691.00,0.0038
2690.00,0.0038
2689.00,0.0038
2688.00,0.0038
2687.00,0.0038
2686.00,0.0038
2685.00,0.0038
2684.00,0.0038
2683.00,0.0039
2682.00,0.0038
2681.00,0.0038
2680.00,0.0038
2679.00,0.0037
2678.00,0.0037
2677.00,0.0036
2676.00,0.0036
2675.00,0.0036
2674.00,0.0036
2673.00,0.0037
2672.00,0.0037
2671.00,0.0036
2670.00,0.0036
2669.00,0.0036
2668.00,0.0036
2667.00,0.0036
2666.00,0.0036
2665.00,0.0036
2664.00,0.0036
2663.00,0.0036
2662.00,0.0036
2661.00,0.0036
2660.00,0.0036
2659.00,0.0036
2658.00,0.0037
2657.00,0.0037
2656.00,0.0037
2655.00,0.0037
2654.00,0.0037
2653.00,0.0037
2652.00,0.0037
2651.00,0.0037
2650.00,0.0037
2649.00,0.0037
2648.00,0.0037
2647.00,0.0036
2646.00,0.0035
2645.00,0.0035
2644.00,0.0036
2643.00,0.0036
2642.00,0.0036
2641.00,0.0036
2640.00,0.0036
2639.00,0.0036
2638.00,0.0036
2637.00,0.0036
2636.00,0.0035
2635.00,0.0035
2634.00,0.0035
2633.00,0.0036
2632.00,0.0036
2631.00,0.0035
2630.00,0.0035
2629.00,0.0034
2628.00,0.0033
2627.00,0.0033
2626.00,0.0033
2625.00,0.0034
2624.00,0.0034
2623.00,0.0035
2622.00,0.0035
2621.00,0.0035
2620.00,0.0036
2619.00,0.0035
2618.00,0.0035
2617.00,0.0035
2616.00,0.0035
2615.00,0.0034
2614.00,0.0033
2613.00,0.0034
2612.00,0.0034
2611.00,0.0035
2610.00,0.0035
2609.00,0.0034
2608.00,0.0033
2607.00,0.0033
2606.00,0.0033
2605.00,0.0034
2604.00,0.0034
2603.00,0.0035
2602.00,0.0035
2601.00,0.0035
2600.00,0.0035
2599.00,0.0034
2598.00,0.0034
2597.00,0.0033
2596.00,0.0032
2595.00,0.0032
2594.00,0.0032
2593.00,0.0033
2592.00,0.0033
2591.00,0.0033
2590.00,0.0033
2589.00,0.0033
2588.00,0.0033
2587.00,0.0033
2586.00,0.0033
2585.00,0.0032
2584.00,0.0032
2583.00,0.0032
2582.00,0.0032
2581.00,0.0032
2580.00,0.0033
2579.00,0.0033
2578.00,0.0033
2577.00,0.0033
2576.00,0.0032
2575.00,0.0031
2574.00,0.0031
2573.00,0.0031
2572.00,0.0032
2571.00,0.0032
2570.00,0.0031
2569.00,0.0031
2568.00,0.0031
2567.00,0.0032
2566.00,0.0033
2565.00,0.0033
2564.00,0.0033
2563.00,0.0033
2562.00,0.0033
2561.00,0.0033
2560.00,0.0033
2559.00,0.0033
2558.00,0.0033
2557.00,0.0033
2556.00,0.0033
2555.00,0.0033
2554.00,0.0032
2553.00,0.0032
2552.00,0.0031
2551.00,0.0030
2550.00,0.0029
2549.00,0.0029
2548.00,0.0028
2547.00,0.0028
2546.00,0.0028
2545.00,0.0028
2544.00,0.0029
2543.00,0.0029
2542.00,0.0028
2541.00,0.0027
2540.00,0.0026
2539.00,0.0026
2538.00,0.0025
2537.00,0.0025
2536.00,0.0026
2535.00,0.0027
2534.00,0.0028
2533.00,0.0028
2532.00,0.0029
2531.00,0.0029
2530.00,0.0028
2529.00,0.0028
2528.00,0.0027
2527.00,0.0027
2526.00,0.0026
2525.00,0.0026
2524.00,0.0026
2523.00,0.0026
2522.00,0.0026
2521.00,0.0027
2520.00,0.0027
2519.00,0.0028
2518.00,0.0029
2517.00,0.0029
2516.00,0.0030
2515.00,0.0029
2514.00,0.0028
2513.00,0.0027
2512.00,0.0027
2511.00,0.0027
2510.00,0.0028
2509.00,0.0029
2508.00,0.0029
2507.00,0.0029
2506.00,0.0029
2505.00,0.0028
2504.00,0.0027
2503.00,0.0027
2502.00,0.0028
2501.00,0.0028
2500.00,0.0029
2499.00,0.0029
2498.00,0.0029
2497.00,0.0029
2496.00,0.0030
2495.00,0.0030
2494.00,0.0031
2493.00,0.0031
2492.00,0.0030
2491.00,0.0030
2490.00,0.0029
2489.00,0.0029
2488.00,0.0029
2487.00,0.0029
2486.00,0.0029
2485.00,0.0028
2484.00,0.0028
2483.00,0.0027
2482.00,0.0028
2481.00,0.0028
2480.00,0.0029
2479.00,0.0029
2478.00,0.0028
2477.00,0.0027
2476.00,0.0027
2475.00,0.0027
2474.00,0.0027
2473.00,0.0028
2472.00,0.0028
2471.00,0.0028
2470.00,0.0027
2469.00,0.0027
2468.00,0.0027
2467.00,0.0027
2466.00,0.0027
2465.00,0.0026
2464.00,0.0026
2463.00,0.0026
2462.00,0.0026
2461.00,0.0026
2460.00,0.0027
2459.00,0.0027
2458.00,0.0028
2457.00,0.0028
2456.00,0.0027
2455.00,0.0027
2454.00,0.0028
2453.00,0.0029
2452.00,0.0030
2451.00,0.0029
2450.00,0.0028
2449.00,0.0028
2448.00,0.0027
2447.00,0.0027
2446.00,0.0026
2445.00,0.0026
2444.00,0.0025
2443.00,0.0025
2442.00,0.0025
2441.00,0.0025
2440.00,0.0025
2439.00,0.0026
2438.00,0.0026
2437.00,0.0026
2436.00,0.0026
2435.00,0.0026
2434.00,0.0025
2433.00,0.0025
2432.00,0.0025
2431.00,0.0025
2430.00,0.0026
2429.00,0.0026
2428.00,0.0026
2427.00,0.0026
2426.00,0.0026
2425.00,0.0026
2424.00,0.0026
2423.00,0.0025
2422.00,0.0025
2421.00,0.0025
2420.00,0.0025
2419.00,0.0025
2418.00,0.0025
2417.00,0.0024
2416.00,0.0024
2415.00,0.0024
2414.00,0.0024
2413.00,0.0025
2412.00,0.0025
2411.00,0.0025
2410.00,0.0026
2409.00,0.0026
2408.00,0.0026
2407.00,0.0025
2406.00,0.0024
2405.00,0.0024
2404.00,0.0024
2403.00,0.0023
2402.00,0.0023
2401.00,0.0022
2400.00,0.0022
2399.00,0.0023
2398.00,0.0023
2397.00,0.0023
2396.00,0.0023
2395.00,0.0023
2394.00,0.0023
2393.00,0.0023
2392.00,0.0023
2391.00,0.0023
2390.00,0.0023
2389.00,0.0022
2388.00,0.0022
2387.00,0.0022
2386.00,0.0022
2385.00,0.0022
2384.00,0.0022
2383.00,0.0021
2382.00,0.0021
2381.00,0.0021
2380.00,0.0022
2379.00,0.0023
2378.00,0.0023
2377.00,0.0023
2376.00,0.0022
2375.00,0.0022
2374.00,0.0022
2373.00,0.0022
2372.00,0.0021
2371.00,0.0021
2370.00,0.0020
2369.00,0.0018
2368.00,0.0016
2367.00,0.0017
2366.00,0.0019
2365.00,0.0022
2364.00,0.0024
2363.00,0.0023
2362.00,0.0023
2361.00,0.0023
2360.00,0.0024
2359.00,0.0024
2358.00,0.0024
2357.00,0.0023
2356.00,0.0021
2355.00,0.0020
2354.00,0.0018
2353.00,0.0018
2352.00,0.0019
2351.00,0.0019
2350.00,0.0020
2349.00,0.0020
2348.00,0.0019
2347.00,0.0018
2346.00,0.0017
2345.00,0.0017
2344.00,0.0018
2343.00,0.0020
2342.00,0.0021
2341.00,0.0022
2340.00,0.0023
2339.00,0.0021
2338.00,0.0019
2337.00,0.0017
2336.00,0.0016
2335.00,0.0017
2334.00,0.0018
2333.00,0.0019
2332.00,0.0019
2331.00,0.0018
2330.00,0.0017
2329.00,0.0016
2328.00,0.0017
2327.00,0.0018
2326.00,0.0020
2325.00,0.0020
2324.00,0.0020
2323.00,0.0019
2322.00,0.0019
2321.00,0.0019
2320.00,0.0018
2319.00,0.0017
2318.00,0.0016
2317.00,0.0016
2316.00,0.0016
2315.00,0.0016
2314.00,0.0016
2313.00,0.0016
2312.00,0.0016
2311.00,0.0017
2310.00,0.0019
2309.00,0.0020
2308.00,0.0021
2307.00,0.0020
2306.00,0.0020
2305.00,0.0019
2304.00,0.0018
2303.00,0.0017
2302.00,0.0016
2301.00,0.0015
2300.00,0.0016
2299.00,0.0016
2298.00,0.0016
2297.00,0.0016
2296.00,0.0016
2295.00,0.0017
2294.00,0.0017
2293.00,0.0019
2292.00,0.0020
2291.00,0.0021
2290.00,0.0020
2289.00,0.0019
2288.00,0.0019
2287.00,0.0020
2286.00,0.0021
2285.00,0.0023
2284.00,0.0024
2283.00,0.0025
2282.00,0.0024
2281.00,0.0023
2280.00,0.0021
2279.00,0.0020
2278.00,0.0020
2277.00,0.0020
2276.00,0.0020
2275.00,0.0019
2274.00,0.0018
2273.00,0.0017
2272.00,0.0017
2271.00,0.0017
2270.00,0.0017
2269.00,0.0017
2268.00,0.0017
2267.00,0.0017
2266.00,0.0017
2265.00,0.0017
2264.00,0.0018
2263.00,0.0019
2262.00,0.0019
2261.00,0.0019
2260.00,0.0019
2259.00,0.0018
2258.00,0.0017
2257.00,0.0015
2256.00,0.0013
2255.00,0.0012
2254.00,0.0013
2253.00,0.0014
2252.00,0.0014
2251.00,0.0014
2250.00,0.0014
2249.00,0.0013
2248.00,0.0013
2247.00,0.0014
2246.00,0.0016
2245.00,0.0017
2244.00,0.0018
2243.00,0.0018
2242.00,0.0017
2241.00,0.0016
2240.00,0.0015
2239.00,0.0014
2238.00,0.0014
2237.00,0.0014
2236.00,0.0014
2235.00,0.0014
2234.00,0.0014
2233.00,0.0015
2232.00,0.0015
2231.00,0.0014
2230.00,0.0013
2229.00,0.0012
2228.00,0.0013
2227.00,0.0014
2226.00,0.0014
2225.00,0.0014
2224.00,0.0012
2223.00,0.0011
2222.00,0.0010
2221.00,0.0010
2220.00,0.0011
2219.00,0.0011
2218.00,0.0012
2217.00,0.0012
2216.00,0.0013
2215.00,0.0014
2214.00,0.0016
2213.00,0.0015
2212.00,0.0013
2211.00,0.0011
2210.00,0.0010
2209.00,0.0011
2208.00,0.0012
2207.00,0.0013
2206.00,0.0013
2205.00,0.0013
2204.00,0.0012
2203.00,0.0012
2202.00,0.0011
2201.00,0.0011
2200.00,0.0010
2199.00,0.0010
2198.00,0.0010
2197.00,0.0011
2196.00,0.0011
2195.00,0.0011
2194.00,0.0010
2193.00,0.0009
2192.00,0.0007
2191.00,0.0005
2190.00,0.0002
2189.00,0.0000
2188.00,0.0001
2187.00,0.0004
2186.00,0.0007
2185.00,0.0009
2184.00,0.0008
2183.00,0.0005
2182.00,0.0004
2181.00,0.0004
2180.00,0.0006
2179.00,0.0008
2178.00,0.0010
2177.00,0.0011
2176.00,0.0012
2175.00,0.0010
2174.00,0.0008
2173.00,0.0006
2172.00,0.0006
2171.00,0.0007
2170.00,0.0009
2169.00,0.0010
2168.00,0.0010
2167.00,0.0010
2166.00,0.0012
2165.00,0.0014
2164.00,0.0017
2163.00,0.0020
2162.00,0.0020
2161.00,0.0018
2160.00,0.0013
2159.00,0.0006
2158.00,0.0001
2157.00,-0.0002
2156.00,-0.0002
2155.00,-0.0001
2154.00,0.0001
2153.00,0.0003
2152.00,0.0004
2151.00,0.0002
2150.00,0.0000
2149.00,-0.0001
2148.00,0.0000
2147.00,0.0002
2146.00,0.0005
2145.00,0.0007
2144.00,0.0008
2143.00,0.0009
2142.00,0.0010
2141.00,0.0012
2140.00,0.0012
2139.00,0.0011
2138.00,0.0009
2137.00,0.0007
2136.00,0.0005
2135.00,0.0004
2134.00,0.0004
2133.00,0.0004
2132.00,0.0005
2131.00,0.0005
2130.00,0.0006
2129.00,0.0007
2128.00,0.0008
2127.00,0.0008
2126.00,0.0008
2125.00,0.0007
2124.00,0.0006
2123.00,0.0006
2122.00,0.0006
2121.00,0.0006
2120.00,0.0006
2119.00,0.0006
2118.00,0.0006
2117.00,0.0006
2116.00,0.0006
2115.00,0.0005
2114.00,0.0003
2113.00,0.0002
2112.00,0.0003
2111.00,0.0005
2110.00,0.0007
2109.00,0.0009
2108.00,0.0010
2107.00,0.0011
2106.00,0.0010
2105.00,0.0009
2104.00,0.0008
2103.00,0.0007
2102.00,0.0007
2101.00,0.0007
2100.00,0.0006
2099.00,0.0005
2098.00,0.0003
2097.00,0.0003
2096.00,0.0005
2095.00,0.0006
2094.00,0.0006
2093.00,0.0006
2092.00,0.0005
2091.00,0.0004
2090.00,0.0004
2089.00,0.0004
2088.00,0.0005
2087.00,0.0005
2086.00,0.0006
2085.00,0.0007
2084.00,0.0008
2083.00,0.0009
2082.00,0.0008
2081.00,0.0008
2080.00,0.0008
2079.00,0.0008
2078.00,0.0008
2077.00,0.0008
2076.00,0.0009
2075.00,0.0009
2074.00,0.0009
2073.00,0.0009
2072.00,0.0009
2071.00,0.0009
2070.00,0.0009
2069.00,0.0007
2068.00,0.0005
2067.00,0.0004
2066.00,0.0004
2065.00,0.0005
2064.00,0.0007
2063.00,0.0008
2062.00,0.0008
2061.00,0.0007
2060.00,0.0006
2059.00,0.0004
2058.00,0.0004
2057.00,0.0005
2056.00,0.0006
2055.00,0.0006
2054.00,0.0007
2053.00,0.0009
2052.00,0.0010
2051.00,0.0010
2050.00,0.0008
2049.00,0.0007
2048.00,0.0006
2047.00,0.0006
2046.00,0.0008
2045.00,0.0009
2044.00,0.0010
2043.00,0.0011
2042.00,0.0011
2041.00,0.0009
2040.00,0.0007
2039.00,0.0005
2038.00,0.0005
2037.00,0.0008
2036.00,0.0010
2035.00,0.0009
2034.00,0.0008
2033.00,0.0008
2032.00,0.0011
2031.00,0.0013
2030.00,0.0014
2029.00,0.0012
2028.00,0.0009
2027.00,0.0007
2026.00,0.0005
2025.00,0.0004
2024.00,0.0001
2023.00,-0.0001
2022.00,-0.0002
2021.00,-0.0003
2020.00,-0.0004
2019.00,-0.0006
2018.00,-0.0007
2017.00,-0.0007
2016.00,-0.0006
2015.00,-0.0003
2014.00,-0.0001
2013.00,0.0000
2012.00,0.0001
2011.00,0.0001
2010.00,0.0001
2009.00,0.0002
2008.00,0.0001
2007.00,-0.0000
2006.00,-0.0001
2005.00,-0.0002
2004.00,-0.0002
2003.00,0.0001
2002.00,0.0005
2001.00,0.0008
2000.00,0.0009
1999.00,0.0007
1998.00,0.0005
1997.00,0.0005
1996.00,0.0006
1995.00,0.0008
1994.00,0.0010
1993.00,0.0010
1992.00,0.0008
1991.00,0.0005
1990.00,0.0001
1989.00,-0.0000
1988.00,0.0000
1987.00,0.0002
1986.00,0.0003
1985.00,0.0004
1984.00,0.0004
1983.00,0.0004
1982.00,0.0003
1981.00,0.0002
1980.00,0.0001
1979.00,-0.0002
1978.00,-0.0006
1977.00,-0.0008
1976.00,-0.0008
1975.00,-0.0005
1974.00,-0.0000
1973.00,0.0002
1972.00,0.0002
1971.00,-0.0000
1970.00,-0.0000
1969.00,0.0001
1968.00,0.0003
1967.00,0.0002
1966.00,-0.0001
1965.00,-0.0002
1964.00,-0.0003
1963.00,-0.0002
1962.00,-0.0001
1961.00,-0.0000
1960.00,0.0002
1959.00,0.0004
1958.00,0.0005
1957.00,0.0004
1956.00,0.0003
1955.00,0.0003
1954.00,0.0003
1953.00,0.0003
1952.00,0.0003
1951.00,0.0002
1950.00,-0.0000
1949.00,-0.0001
1948.00,-0.0001
1947.00,-0.0001
1946.00,-0.0001
1945.00,-0.0001
1944.00,-0.0003
1943.00,-0.0004
1942.00,-0.0005
1941.00,-0.0005
1940.00,-0.0005
1939.00,-0.0006
1938.00,-0.0006
1937.00,-0.0006
1936.00,-0.0006
1935.00,-0.0006
1934.00,-0.0006
1933.00,-0.0006
1932.00,-0.0005
1931.00,-0.0003
1930.00,-0.0001
1929.00,0.0001
1928.00,0.0003
1927.00,0.0003
1926.00,0.0003
1925.00,0.0002
1924.00,0.0002
1923.00,0.0001
1922.00,0.0001
1921.00,0.0000
1920.00,-0.0001
1919.00,-0.0002
1918.00,-0.0004
1917.00,-0.0004
1916.00,-0.0003
1915.00,-0.0002
1914.00,-0.0002
1913.00,-0.0002
1912.00,-0.0001
1911.00,-0.0001
1910.00,-0.0001
1909.00,-0.0002
1908.00,-0.0003
1907.00,-0.0003
1906.00,-0.0003
1905.00,-0.0002
1904.00,-0.0001
1903.00,-0.0001
1902.00,-0.0001
1901.00,-0.0002
1900.00,-0.0002
1899.00,-0.0001
1898.00,-0.0000
1897.00,-0.0000
1896.00,-0.0001
1895.00,-0.0003
1894.00,-0.0004
1893.00,-0.0003
1892.00,-0.0002
1891.00,-0.0000
1890.00,-0.0000
1889.00,-0.0001
1888.00,-0.0001
1887.00,-0.0002
1886.00,-0.0002
1885.00,-0.0002
1884.00,-0.0002
1883.00,-0.0001
1882.00,-0.0002
1881.00,-0.0002
1880.00,-0.0002
1879.00,-0.0002
1878.00,-0.0002
1877.00,-0.0003
1876.00,-0.0003
1875.00,-0.0003
1874.00,-0.0002
1873.00,-0.0001
1872.00,0.0000
1871.00,0.0001
1870.00,0.0001
1869.00,-0.0000
1868.00,-0.0001
1867.00,-0.0002
1866.00,-0.0002
1865.00,-0.0002
1864.00,-0.0002
1863.00,-0.0003
1862.00,-0.0004
1861.00,-0.0005
1860.00,-0.0005
1859.00,-0.0005
1858.00,-0.0005
1857.00,-0.0004
1856.00,-0.0003
1855.00,-0.0002
1854.00,-0.0003
1853.00,-0.0003
1852.00,-0.0003
1851.00,-0.0002
1850.00,-0.0002
1849.00,-0.0001
1848.00,-0.0001
1847.00,-0.0001
1846.00,-0.0001
1845.00,-0.0001
1844.00,-0.0003
1843.00,-0.0004
1842.00,-0.0005
1841.00,-0.0004
1840.00,-0.0003
1839.00,-0.0002
1838.00,-0.0002
1837.00,-0.0002
1836.00,-0.0002
1835.00,-0.0003
1834.00,-0.0002
1833.00,-0.0001
1832.00,0.0000
1831.00,0.0001
1830.00,0.0000
1829.00,-0.0001
1828.00,-0.0001
1827.00,-0.0001
1826.00,-0.0001
1825.00,-0.0002
1824.00,-0.0002
1823.00,-0.0003
1822.00,-0.0003
1821.00,-0.0002
1820.00,-0.0002
1819.00,-0.0003
1818.00,-0.0004
1817.00,-0.0004
1816.00,-0.0004
1815.00,-0.0004
1814.00,-0.0003
1813.00,-0.0003
1812.00,-0.0002
1811.00,-0.0002
1810.00,-0.0002
1809.00,-0.0002
1808.00,-0.0001
1807.00,-0.0001
1806.00,-0.0001
1805.00,-0.0000
1804.00,0.0000
1803.00,0.0001
1802.00,0.0000
1801.00,-0.0000
1800.00,-0.0001
1799.00,-0.0001
1798.00,-0.0001
1797.00,-0.0000
1796.00,0.0001
1795.00,0.0001
1794.00,0.0001
1793.00,0.0001
1792.00,0.0001
1791.00,0.0001
1790.00,0.0001
1789.00,0.0001
1788.00,0.0002
1787.00,0.0003
1786.00,0.0003
1785.00,0.0003
1784.00,0.0004
1783.00,0.0004
1782.00,0.0005
1781.00,0.0005
1780.00,0.0004
1779.00,0.0004
1778.00,0.0004
1777.00,0.0005
1776.00,0.0007
1775.00,0.0008
1774.00,0.0008
1773.00,0.0007
1772.00,0.0006
1771.00,0.0005
1770.00,0.0006
1769.00,0.0008
1768.00,0.0008
1767.00,0.0008
1766.00,0.0009
1765.00,0.0010
1764.00,0.0011
1763.00,0.0011
1762.00,0.0010
1761.00,0.0010
1760.00,0.0011
1759.00,0.0012
1758.00,0.0013
1757.00,0.0013
1756.00,0.0013
1755.00,0.0014
1754.00,0.0016
1753.00,0.0017
1752.00,0.0016
1751.00,0.0015
1750.00,0.0014
1749.00,0.0015
1748.00,0.0016
1747.00,0.0017
1746.00,0.0018
1745.00,0.0019
1744.00,0.0020
1743.00,0.0020
1742.00,0.0021
1741.00,0.0022
1740.00,0.0022
1739.00,0.0023
1738.00,0.0023
1737.00,0.0025
1736.00,0.0027
1735.00,0.0028
1734.00,0.0028
1733.00,0.0028
1732.00,0.0029
1731.00,0.0031
1730.00,0.0033
1729.00,0.0034
1728.00,0.0035
1727.00,0.0036
1726.00,0.0037
1725.00,0.0039
1724.00,0.0040
1723.00,0.0041
1722.00,0.0042
1721.00,0.0042
1720.00,0.0043
1719.00,0.0043
1718.00,0.0043
1717.00,0.0043
1716.00,0.0044
1715.00,0.0046
1714.00,0.0047
1713.00,0.0048
1712.00,0.0049
1711.00,0.0050
1710.00,0.0051
1709.00,0.0051
1708.00,0.0052
1707.00,0.0053
1706.00,0.0053
1705.00,0.0053
1704.00,0.0054
1703.00,0.0056
1702.00,0.0056
1701.00,0.0055
1700.00,0.0053
1699.00,0.0052
1698.00,0.0054
1697.00,0.0057
1696.00,0.0058
1695.00,0.0058
1694.00,0.0058
1693.00,0.0058
1692.00,0.0060
1691.00,0.0061
1690.00,0.0062
1689.00,0.0063
1688.00,0.0064
1687.00,0.0064
1686.00,0.0064
1685.00,0.0063
1684.00,0.0063
1683.00,0.0063
1682.00,0.0064
1681.00,0.0064
1680.00,0.0065
1679.00,0.0066
1678.00,0.0067
1677.00,0.0069
1676.00,0.0070
1675.00,0.0071
1674.00,0.0071
1673.00,0.0071
1672.00,0.0072
1671.00,0.0073
1670.00,0.0074
1669.00,0.0074
1668.00,0.0075
1667.00,0.0075
1666.00,0.0076
1665.00,0.0076
1664.00,0.0077
1663.00,0.0078
1662.00,0.0079
1661.00,0.0080
1660.00,0.0082
1659.00,0.0084
1658.00,0.0085
1657.00,0.0086
1656.00,0.0086
1655.00,0.0084
1654.00,0.0083
1653.00,0.0085
1652.00,0.0087
1651.00,0.0088
1650.00,0.0090
1649.00,0.0091
1648.00,0.0093
1647.00,0.0095
1646.00,0.0097
1645.00,0.0099
1644.00,0.0100
1643.00,0.0102
1642.00,0.0102
1641.00,0.0103
1640.00,0.0103
1639.00,0.0103
1638.00,0.0104
1637.00,0.0106
1636.00,0.0109
1635.00,0.0112
1634.00,0.0112
1633.00,0.0111
1632.00,0.0110
1631.00,0.0110
1630.00,0.0110
1629.00,0.0111
1628.00,0.0112
1627.00,0.0113
1626.00,0.0114
1625.00,0.0116
1624.00,0.0117
1623.00,0.0119
1622.00,0.0119
1621.00,0.0119
1620.00,0.0120
1619.00,0.0120
1618.00,0.0120
1617.00,0.0120
1616.00,0.0121
1615.00,0.0122
1614.00,0.0122
1613.00,0.0123
1612.00,0.0123
1611.00,0.0123
1610.00,0.0123
1609.00,0.0124
1608.00,0.0124
1607.00,0.0124
1606.00,0.0125
1605.00,0.0126
1604.00,0.0126
1603.00,0.0126
1602.00,0.0125
1601.00,0.0125
1600.00,0.0124
1599.00,0.0124
1598.00,0.0125
1597.00,0.0125
1596.00,0.0126
1595.00,0.0127
1594.00,0.0127
1593.00,0.0127
1592.00,0.0127
1591.00,0.0126
1590.00,0.0126
1589.00,0.0125
1588.00,0.0126
1587.00,0.0126
1586.00,0.0126
1585.00,0.0126
1584.00,0.0125
1583.00,0.0125
1582.00,0.0125
1581.00,0.0124
1580.00,0.0123
1579.00,0.0123
1578.00,0.0124
1577.00,0.0125
1576.00,0.0124
1575.00,0.0123
1574.00,0.0122
1573.00,0.0121
1572.00,0.0120
1571.00,0.0120
1570.00,0.0120
1569.00,0.0119
1568.00,0.0119
1567.00,0.0119
1566.00,0.0118
1565.00,0.0117
1564.00,0.0116
1563.00,0.0115
1562.00,0.0115
1561.00,0.0114
1560.00,0.0114
1559.00,0.0115
1558.00,0.0113
1557.00,0.0110
1556.00,0.0109
1555.00,0.0109
1554.00,0.0109
1553.00,0.0109
1552.00,0.0109
1551.00,0.0108
1550.00,0.0107
1549.00,0.0105
1548.00,0.0103
1547.00,0.0102
1546.00,0.0101
1545.00,0.0099
1544.00,0.0097
1543.00,0.0095
1542.00,0.0093
1541.00,0.0092
1540.00,0.0093
1539.00,0.0093
1538.00,0.0091
1537.00,0.0090
1536.00,0.0089
1535.00,0.0089
1534.00,0.0089
1533.00,0.0089
1532.00,0.0088
1531.00,0.0088
1530.00,0.0087
1529.00,0.0087
1528.00,0.0086
1527.00,0.0085
1526.00,0.0083
1525.00,0.0081
1524.00,0.0080
1523.00,0.0079
1522.00,0.0079
1521.00,0.0079
1520.00,0.0079
1519.00,0.0080
1518.00,0.0080
1517.00,0.0080
1516.00,0.0079
1515.00,0.0078
1514.00,0.0077
1513.00,0.0076
1512.00,0.0076
1511.00,0.0076
1510.00,0.0076
1509.00,0.0076
1508.00,0.0076
1507.00,0.0076
1506.00,0.0074
1505.00,0.0072
1504.00,0.0071
1503.00,0.0071
1502.00,0.0071
1501.00,0.0072
1500.00,0.0072
1499.00,0.0073
1498.00,0.0074
1497.00,0.0075
1496.00,0.0075
1495.00,0.0073
1494.00,0.0072
1493.00,0.0072
1492.00,0.0072
1491.00,0.0072
1490.00,0.0073
1489.00,0.0075
1488.00,0.0075
1487.00,0.0074
1486.00,0.0074
1485.00,0.0073
1484.00,0.0073
1483.00,0.0073
1482.00,0.0073
1481.00,0.0073
1480.00,0.0073
1479.00,0.0073
1478.00,0.0073
1477.00,0.0073
1476.00,0.0073
1475.00,0.0072
1474.00,0.0072
1473.00,0.0073
1472.00,0.0074
1471.00,0.0075
1470.00,0.0076
1469.00,0.0076
1468.00,0.0077
1467.00,0.0077
1466.00,0.0077
1465.00,0.0076
1464.00,0.0075
1463.00,0.0074
1462.00,0.0074
1461.00,0.0073
1460.00,0.0073
1459.00,0.0073
1458.00,0.0074
1457.00,0.0075
1456.00,0.0074
1455.00,0.0074
1454.00,0.0075
1453.00,0.0076
1452.00,0.0077
1451.00,0.0078
1450.00,0.0079
1449.00,0.0080
1448.00,0.0082
1447.00,0.0083
1446.00,0.0083
1445.00,0.0083
1444.00,0.0083
1443.00,0.0083
1442.00,0.0082
1441.00,0.0081
1440.00,0.0082
1439.00,0.0083
1438.00,0.0084
1437.00,0.0085
1436.00,0.0085
1435.00,0.0085
1434.00,0.0085
1433.00,0.0085
1432.00,0.0086
1431.00,0.0086
1430.00,0.0085
1429.00,0.0085
1428.00,0.0084
1427.00,0.0084
1426.00,0.0085
1425.00,0.0086
1424.00,0.0087
1423.00,0.0087
1422.00,0.0086
1421.00,0.0087
1420.00,0.0087
1419.00,0.0088
1418.00,0.0089
1417.00,0.0090
1416.00,0.0090
1415.00,0.0090
1414.00,0.0089
1413.00,0.0088
1412.00,0.0087
1411.00,0.0087
1410.00,0.0087
1409.00,0.0087
1408.00,0.0087
1407.00,0.0087
1406.00,0.0087
1405.00,0.0086
1404.00,0.0085
1403.00,0.0084
1402.00,0.0083
1401.00,0.0082
1400.00,0.0081
1399.00,0.0081
1398.00,0.0080
1397.00,0.0081
1396.00,0.0081
1395.00,0.0081
1394.00,0.0081
1393.00,0.0080
1392.00,0.0080
1391.00,0.0080
1390.00,0.0080
1389.00,0.0081
1388.00,0.0081
1387.00,0.0081
1386.00,0.0080
1385.00,0.0079
1384.00,0.0078
1383.00,0.0078
1382.00,0.0079
1381.00,0.0080
1380.00,0.0081
1379.00,0.0081
1378.00,0.0081
1377.00,0.0082
1376.00,0.0082
1375.00,0.0083
1374.00,0.0083
1373.00,0.0083
1372.00,0.0083
1371.00,0.0083
1370.00,0.0083
1369.00,0.0084
1368.00,0.0083
1367.00,0.0083
1366.00,0.0082
1365.00,0.0082
1364.00,0.0082
1363.00,0.0083
1362.00,0.0084
1361.00,0.0084
1360.00,0.0084
1359.00,0.0083
1358.00,0.0083
1357.00,0.0083
1356.00,0.0083
1355.00,0.0084
1354.00,0.0083
1353.00,0.0083
1352.00,0.0082
1351.00,0.0081
1350.00,0.0080
1349.00,0.0079
1348.00,0.0079
1347.00,0.0079
1346.00,0.0079
1345.00,0.0078
1344.00,0.0077
1343.00,0.0077
1342.00,0.0077
1341.00,0.0078
1340.00,0.0079
1339.00,0.0079
1338.00,0.0079
1337.00,0.0078
1336.00,0.0077
1335.00,0.0076
1334.00,0.0076
1333.00,0.0075
1332.00,0.0075
1331.00,0.0075
1330.00,0.0075
1329.00,0.0075
1328.00,0.0075
1327.00,0.0075
1326.00,0.0074
1325.00,0.0074
1324.00,0.0074
1323.00,0.0075
1322.00,0.0075
1321.00,0.0076
1320.00,0.0077
1319.00,0.0077
1318.00,0.0076
1317.00,0.0074
1316.00,0.0073
1315.00,0.0073
1314.00,0.0074
1313.00,0.0075
1312.00,0.0076
1311.00,0.0077
1310.00,0.0077
1309.00,0.0077
1308.00,0.0076
1307.00,0.0076
1306.00,0.0075
1305.00,0.0076
1304.00,0.0077
1303.00,0.0077
1302.00,0.0078
1301.00,0.0078
1300.00,0.0077
1299.00,0.0077
1298.00,0.0076
1297.00,0.0076
1296.00,0.0076
1295.00,0.0076
1294.00,0.0077
1293.00,0.0077
1292.00,0.0078
1291.00,0.0078
1290.00,0.0078
1289.00,0.0079
1288.00,0.0079
1287.00,0.0079
1286.00,0.0078
1285.00,0.0078
1284.00,0.0078
1283.00,0.0078
1282.00,0.0078
1281.00,0.0077
1280.00,0.0076
1279.00,0.0075
1278.00,0.0075
1277.00,0.0074
1276.00,0.0074
1275.00,0.0074
1274.00,0.0073
1273.00,0.0073
1272.00,0.0072
1271.00,0.0072
1270.00,0.0072
1269.00,0.0072
1268.00,0.0071
1267.00,0.0071
1266.00,0.0072
1265.00,0.0071
1264.00,0.0071
1263.00,0.0070
1262.00,0.0070
1261.00,0.0071
1260.00,0.0071
1259.00,0.0072
1258.00,0.0073
1257.00,0.0073
1256.00,0.0072
1255.00,0.0072
1254.00,0.0073
1253.00,0.0074
1252.00,0.0075
1251.00,0.0075
1250.00,0.0075
1249.00,0.0074
1248.00,0.0075
1247.00,0.0077
1246.00,0.0079
1245.00,0.0080
1244.00,0.0082
1243.00,0.0083
1242.00,0.0083
1241.00,0.0083
1240.00,0.0083
1239.00,0.0084
1238.00,0.0085
1237.00,0.0087
1236.00,0.0089
1235.00,0.0090
1234.00,0.0091
1233.00,0.0091
1232.00,0.0092
1231.00,0.0093
1230.00,0.0094
1229.00,0.0095
1228.00,0.0096
1227.00,0.0097
1226.00,0.0097
1225.00,0.0097
1224.00,0.0097
1223.00,0.0098
1222.00,0.0099
1221.00,0.0101
1220.00,0.0102
1219.00,0.0103
1218.00,0.0103
1217.00,0.0103
1216.00,0.0104
1215.00,0.0104
1214.00,0.0105
1213.00,0.0106
1212.00,0.0107
1211.00,0.0108
1210.00,0.0109
1209.00,0.0111
1208.00,0.0111
1207.00,0.0112
1206.00,0.0111
1205.00,0.0111
1204.00,0.0112
1203.00,0.0113
1202.00,0.0113
1201.00,0.0113
1200.00,0.0114
1199.00,0.0115
1198.00,0.0115
1197.00,0.0115
1196.00,0.0115
1195.00,0.0116
1194.00,0.0116
1193.00,0.0117
1192.00,0.0118
1191.00,0.0118
1190.00,0.0118
1189.00,0.0117
1188.00,0.0117
1187.00,0.0117
1186.00,0.0118
1185.00,0.0119
1184.00,0.0119
1183.00,0.0119
1182.00,0.0118
1181.00,0.0117
1180.00,0.0117
1179.00,0.0117
1178.00,0.0118
1177.00,0.0118
1176.00,0.0119
1175.00,0.0121
1174.00,0.0122
1173.00,0.0122
1172.00,0.0122
1171.00,0.0121
1170.00,0.0120
1169.00,0.0120
1168.00,0.0121
1167.00,0.0122
1166.00,0.0122
1165.00,0.0123
1164.00,0.0122
1163.00,0.0122
1162.00,0.0122
1161.00,0.0122
1160.00,0.0123
1159.00,0.0123
1158.00,0.0123
1157.00,0.0123
1156.00,0.0123
1155.00,0.0124
1154.00,0.0125
1153.00,0.0125
1152.00,0.0125
1151.00,0.0125
1150.00,0.0125
1149.00,0.0125
1148.00,0.0125
1147.00,0.0126
1146.00,0.0127
1145.00,0.0128
1144.00,0.0130
1143.00,0.0132
1142.00,0.0133
1141.00,0.0134
1140.00,0.0134
1139.00,0.0134
1138.00,0.0135
1137.00,0.0137
1136.00,0.0139
1135.00,0.0141
1134.00,0.0143
1133.00,0.0145
1132.00,0.0146
1131.00,0.0146
1130.00,0.0147
1129.00,0.0150
1128.00,0.0152
1127.00,0.0154
1126.00,0.0153
1125.00,0.0152
1124.00,0.0153
1123.00,0.0157
1122.00,0.0162
1121.00,0.0166
1120.00,0.0169
1119.00,0.0171
1118.00,0.0172
1117.00,0.0174
1116.00,0.0177
1115.00,0.0180
1114.00,0.0182
1113.00,0.0183
1112.00,0.0183
1111.00,0.0184
1110.00,0.0185
1109.00,0.0187
1108.00,0.0189
1107.00,0.0191
1106.00,0.0191
1105.00,0.0192
1104.00,0.0193
1103.00,0.0196
1102.00,0.0199
1101.00,0.0201
1100.00,0.0202
1099.00,0.0203
1098.00,0.0204
1097.00,0.0205
1096.00,0.0205
1095.00,0.0205
1094.00,0.0205
1093.00,0.0206
1092.00,0.0208
1091.00,0.0209
1090.00,0.0209
1089.00,0.0207
1088.00,0.0205
1087.00,0.0204
1086.00,0.0206
1085.00,0.0207
1084.00,0.0208
1083.00,0.0209
1082.00,0.0210
1081.00,0.0211
1080.00,0.0212
1079.00,0.0213
1078.00,0.0215
1077.00,0.0218
1076.00,0.0218
1075.00,0.0217
1074.00,0.0214
1073.00,0.0213
1072.00,0.0213
1071.00,0.0212
1070.00,0.0211
1069.00,0.0210
1068.00,0.0209
1067.00,0.0209
1066.00,0.0211
1065.00,0.0213
1064.00,0.0215
1063.00,0.0217
1062.00,0.0217
1061.00,0.0216
1060.00,0.0214
1059.00,0.0212
1058.00,0.0213
1057.00,0.0215
1056.00,0.0217
1055.00,0.0219
1054.00,0.0221
1053.00,0.0222
1052.00,0.0223
1051.00,0.0222
1050.00,0.0222
1049.00,0.0223
1048.00,0.0224
1047.00,0.0225
1046.00,0.0225
1045.00,0.0225
1044.00,0.0225
1043.00,0.0224
1042.00,0.0223
1041.00,0.0220
1040.00,0.0219
1039.00,0.0219
1038.00,0.0221
1037.00,0.0222
1036.00,0.0222
1035.00,0.0221
1034.00,0.0219
1033.00,0.0218
1032.00,0.0217
1031.00,0.0215
1030.00,0.0213
1029.00,0.0209
1028.00,0.0206
1027.00,0.0204
1026.00,0.0202
1025.00,0.0202
1024.00,0.0201
1023.00,0.0198
1022.00,0.0195
1021.00,0.0193
1020.00,0.0191
1019.00,0.0189
1018.00,0.0189
1017.00,0.0188
1016.00,0.0188
1015.00,0.0188
1014.00,0.0188
1013.00,0.0188
1012.00,0.0187
1011.00,0.0186
1010.00,0.0185
1009.00,0.0183
1008.00,0.0182
1007.00,0.0179
1006.00,0.0176
1005.00,0.0175
1004.00,0.0174
1003.00,0.0173
1002.00,0.0172
1001.00,0.0170
1000.00,0.0166
999.00,0.0162
998.00,0.0159
997.00,0.0157
996.00,0.0156
995.00,0.0155
994.00,0.0153
993.00,0.0150
992.00,0.0147
991.00,0.0144
990.00,0.0142
989.00,0.0141
988.00,0.0140
987.00,0.0140
986.00,0.0139
985.00,0.0138
984.00,0.0135
983.00,0.0133
982.00,0.0130
981.00,0.0129
980.00,0.0128
979.00,0.0127
978.00,0.0125
977.00,0.0122
976.00,0.0119
975.00,0.0117
974.00,0.0116
973.00,0.0116
972.00,0.0115
971.00,0.0113
970.00,0.0110
969.00,0.0107
968.00,0.0105
967.00,0.0105
966.00,0.0104
965.00,0.0102
964.00,0.0101
963.00,0.0101
962.00,0.0101
961.00,0.0100
960.00,0.0099
959.00,0.0098
958.00,0.0097
957.00,0.0097
956.00,0.0097
955.00,0.0096
954.00,0.0096
953.00,0.0095
952.00,0.0096
951.00,0.0097
950.00,0.0098
949.00,0.0099
948.00,0.0099
947.00,0.0098
946.00,0.0096
945.00,0.0096
944.00,0.0096
943.00,0.0096
942.00,0.0096
941.00,0.0096
940.00,0.0097
939.00,0.0098
938.00,0.0099
937.00,0.0098
936.00,0.0097
935.00,0.0096
934.00,0.0096
933.00,0.0098
932.00,0.0100
931.00,0.0103
930.00,0.0105
929.00,0.0106
928.00,0.0106
927.00,0.0107
926.00,0.0107
925.00,0.0107
924.00,0.0108
923.00,0.0108
922.00,0.0109
921.00,0.0109
920.00,0.0110
919.00,0.0110
918.00,0.0110
917.00,0.0111
916.00,0.0112
915.00,0.0113
914.00,0.0113
913.00,0.0112
912.00,0.0111
911.00,0.0110
910.00,0.0108
909.00,0.0106
908.00,0.0102
907.00,0.0100
906.00,0.0100
905.00,0.0101
904.00,0.0104
903.00,0.0107
902.00,0.0108
901.00,0.0107
900.00,0.0106
899.00,0.0105
898.00,0.0105
897.00,0.0105
896.00,0.0105
895.00,0.0104
894.00,0.0102
893.00,0.0100
892.00,0.0098
891.00,0.0097
890.00,0.0097
889.00,0.0098
888.00,0.0099
887.00,0.0098
886.00,0.0096
885.00,0.0095
884.00,0.0095
883.00,0.0097
882.00,0.0098
881.00,0.0099
880.00,0.0099
879.00,0.0098
878.00,0.0096
877.00,0.0093
876.00,0.0091
875.00,0.0090
874.00,0.0089
873.00,0.0089
872.00,0.0089
871.00,0.0089
870.00,0.0089
869.00,0.0088
868.00,0.0087
867.00,0.0085
866.00,0.0084
865.00,0.0085
864.00,0.0087
863.00,0.0089
862.00,0.0091
861.00,0.0091
860.00,0.0091
859.00,0.0089
858.00,0.0087
857.00,0.0085
856.00,0.0085
855.00,0.0087
854.00,0.0089
853.00,0.0090
852.00,0.0090
851.00,0.0089
850.00,0.0089
849.00,0.0091
848.00,0.0093
847.00,0.0095
846.00,0.0097
845.00,0.0098
844.00,0.0099
843.00,0.0098
842.00,0.0096
841.00,0.0093
840.00,0.0091
839.00,0.0090
838.00,0.0090
837.00,0.0091
836.00,0.0093
835.00,0.0095
834.00,0.0095
833.00,0.0096
832.00,0.0096
831.00,0.0096
830.00,0.0095
829.00,0.0095
828.00,0.0096
827.00,0.0097
826.00,0.0099
825.00,0.0102
824.00,0.0105
823.00,0.0108
822.00,0.0110
821.00,0.0111
820.00,0.0112
819.00,0.0112
818.00,0.0111
817.00,0.0109
816.00,0.0107
815.00,0.0107
814.00,0.0109
813.00,0.0113
812.00,0.0116
811.00,0.0117
810.00,0.0117
809.00,0.0117
808.00,0.0117
807.00,0.0117
806.00,0.0117
805.00,0.0117
804.00,0.0117
803.00,0.0118
802.00,0.0121
801.00,0.0125
800.00,0.0129
799.00,0.0131
798.00,0.0131
797.00,0.0130
796.00,0.0129
795.00,0.0128
794.00,0.0127
793.00,0.0127
792.00,0.0128
791.00,0.0130
790.00,0.0132
789.00,0.0133
788.00,0.0132
787.00,0.0132
786.00,0.0134
785.00,0.0136
784.00,0.0139
783.00,0.0141
782.00,0.0140
781.00,0.0139
780.00,0.0136
779.00,0.0134
778.00,0.0133
777.00,0.0133
776.00,0.0133
775.00,0.0132
774.00,0.0130
773.00,0.0128
772.00,0.0127
771.00,0.0127
770.00,0.0128
769.00,0.0129
768.00,0.0129
767.00,0.0127
766.00,0.0126
765.00,0.0125
764.00,0.0125
763.00,0.0124
762.00,0.0123
761.00,0.0121
760.00,0.0121
759.00,0.0123
758.00,0.0126
757.00,0.0128
756.00,0.0128
755.00,0.0127
754.00,0.0126
753.00,0.0125
752.00,0.0125
751.00,0.0127
750.00,0.0129
749.00,0.0132
748.00,0.0134
747.00,0.0134
746.00,0.0133
745.00,0.0130
744.00,0.0127
743.00,0.0126
742.00,0.0125
741.00,0.0125
740.00,0.0124
739.00,0.0122
738.00,0.0120
737.00,0.0120
736.00,0.0120
735.00,0.0120
734.00,0.0120
733.00,0.0119
732.00,0.0117
731.00,0.0117
730.00,0.0118
729.00,0.0120
728.00,0.0124
727.00,0.0129
726.00,0.0133
725.00,0.0134
724.00,0.0133
723.00,0.0131
722.00,0.0129
721.00,0.0129
720.00,0.0131
719.00,0.0132
718.00,0.0133
717.00,0.0133
716.00,0.0132
715.00,0.0130
714.00,0.0129
713.00,0.0130
712.00,0.0132
711.00,0.0134
710.00,0.0135
709.00,0.0135
708.00,0.0135
707.00,0.0136
706.00,0.0137
705.00,0.0139
704.00,0.0143
703.00,0.0145
702.00,0.0145
701.00,0.0143
700.00,0.0141
699.00,0.0142
698.00,0.0144
697.00,0.0146
696.00,0.0148
695.00,0.0149
694.00,0.0152
693.00,0.0153
692.00,0.0154
691.00,0.0153
690.00,0.0153
689.00,0.0154
688.00,0.0155
687.00,0.0156
686.00,0.0156
685.00,0.0156
684.00,0.0154
683.00,0.0151
682.00,0.0149
681.00,0.0148
680.00,0.0150
679.00,0.0151
678.00,0.0152
677.00,0.0153
676.00,0.0156
675.00,0.0158
674.00,0.0158
673.00,0.0159
672.00,0.0161
671.00,0.0163
670.00,0.0165
669.00,0.0163
668.00,0.0161
667.00,0.0163
666.00,0.0168
665.00,0.0172
664.00,0.0173
663.00,0.0170
662.00,0.0165
661.00,0.0160
660.00,0.0155
659.00,0.0154
658.00,0.0157
657.00,0.0163
656.00,0.0168
655.00,0.0169
654.00,0.0165
653.00,0.0159
652.00,0.0155
651.00,0.0154
650.00,0.0157
