Created as New Dataset,Monday, April 03 2023
cm-1,A
4000.00,0.0060
3999.00,0.0060
3998.00,0.0060
3997.00,0.0060
3996.00,0.0059
3995.00,0.0059
3994.00,0.0059
3993.00,0.0059
3992.00,0.0059
3991.00,0.0059
3990.00,0.0059
3989.00,0.0059
3988.00,0.0059
3987.00,0.0058
3986.00,0.0058
3985.00,0.0059
3984.00,0.0059
3983.00,0.0059
3982.00,0.0059
3981.00,0.0059
3980.00,0.0058
3979.00,0.0058
3978.00,0.0058
3977.00,0.0058
3976.00,0.0058
3975.00,0.0058
3974.00,0.0058
3973.00,0.0058
3972.00,0.0059
3971.00,0.0059
3970.00,0.0059
3969.00,0.0059
3968.00,0.0059
3967.00,0.0058
3966.00,0.0057
3965.00,0.0057
3964.00,0.0058
3963.00,0.0058
3962.00,0.0059
3961.00,0.0059
3960.00,0.0058
3959.00,0.0057
3958.00,0.0057
3957.00,0.0057
3956.00,0.0057
3955.00,0.0056
3954.00,0.0056
3953.00,0.0056
3952.00,0.0056
3951.00,0.0056
3950.00,0.0057
3949.00,0.0058
3948.00,0.0058
3947.00,0.0058
3946.00,0.0058
3945.00,0.0057
3944.00,0.0057
3943.00,0.0056
3942.00,0.0056
3941.00,0.0056
3940.00,0.0056
3939.00,0.0056
3938.00,0.0057
3937.00,0.0057
3936.00,0.0056
3935.00,0.0056
3934.00,0.0055
3933.00,0.0055
3932.00,0.0055
3931.00,0.0056
3930.00,0.0056
3929.00,0.0056
3928.00,0.0056
3927.00,0.0056
3926.00,0.0056
3925.00,0.0056
3924.00,0.0056
3923.00,0.0056
3922.00,0.0056
3921.00,0.0056
3920.00,0.0056
3919.00,0.0056
3918.00,0.0056
3917.00,0.0057
3916.00,0.0057
3915.00,0.0056
3914.00,0.0056
3913.00,0.0056
3912.00,0.0056
3911.00,0.0056
3910.00,0.0056
3909.00,0.0055
3908.00,0.0054
3907.00,0.0053
3906.00,0.0052
3905.00,0.0051
3904.00,0.0051
3903.00,0.0051
3902.00,0.0051
3901.00,0.0052
3900.00,0.0053
3899.00,0.0054
3898.00,0.0054
3897.00,0.0053
3896.00,0.0053
3895.00,0.0053
3894.00,0.0053
3893.00,0.0054
3892.00,0.0054
3891.00,0.0053
3890.00,0.0052
3889.00,0.0050
3888.00,0.0050
3887.00,0.0050
3886.00,0.0050
3885.00,0.0050
3884.00,0.0049
3883.00,0.0049
3882.00,0.0050
3881.00,0.0051
3880.00,0.0051
3879.00,0.0051
3878.00,0.0052
3877.00,0.0053
3876.00,0.0054
3875.00,0.0054
3874.00,0.0052
3873.00,0.0051
3872.00,0.0050
3871.00,0.0051
3870.00,0.0051
3869.00,0.0051
3868.00,0.0049
3867.00,0.0049
3866.00,0.0051
3865.00,0.0052
3864.00,0.0054
3863.00,0.0054
3862.00,0.0054
3861.00,0.0055
3860.00,0.0054
3859.00,0.0053
3858.00,0.0051
3857.00,0.0047
3856.00,0.0044
3855.00,0.0042
3854.00,0.0044
3853.00,0.0046
3852.00,0.0045
3851.00,0.0045
3850.00,0.0048
3849.00,0.0050
3848.00,0.0052
3847.00,0.0052
3846.00,0.0052
3845.00,0.0052
3844.00,0.0052
3843.00,0.0051
3842.00,0.0050
3841.00,0.0050
3840.00,0.0050
3839.00,0.0051
3838.00,0.0051
3837.00,0.0050
3836.00,0.0050
3835.00,0.0050
3834.00,0.0051
3833.00,0.0052
3832.00,0.0053
3831.00,0.0053
3830.00,0.0053
3829.00,0.0053
3828.00,0.0053
3827.00,0.0053
3826.00,0.0052
3825.00,0.0051
3824.00,0.0051
3823.00,0.0051
3822.00,0.0052
3821.00,0.0052
3820.00,0.0050
3819.00,0.0047
3818.00,0.0048
3817.00,0.0050
3816.00,0.0052
3815.00,0.0053
3814.00,0.0053
3813.00,0.0054
3812.00,0.0054
3811.00,0.0053
3810.00,0.0052
3809.00,0.0051
3808.00,0.0051
3807.00,0.0052
3806.00,0.0052
3805.00,0.0051
3804.00,0.0051
3803.00,0.0053
3802.00,0.0054
3801.00,0.0054
3800.00,0.0052
3799.00,0.0051
3798.00,0.0051
3797.00,0.0053
3796.00,0.0053
3795.00,0.0054
3794.00,0.0054
3793.00,0.0054
3792.00,0.0055
3791.00,0.0055
3790.00,0.0055
3789.00,0.0055
3788.00,0.0055
3787.00,0.0056
3786.00,0.0056
3785.00,0.0056
3784.00,0.0056
3783.00,0.0055
3782.00,0.0054
3781.00,0.0054
3780.00,0.0054
3779.00,0.0054
3778.00,0.0054
3777.00,0.0054
3776.00,0.0054
3775.00,0.0054
3774.00,0.0054
3773.00,0.0053
3772.00,0.0053
3771.00,0.0053
3770.00,0.0052
3769.00,0.0051
3768.00,0.0050
3767.00,0.0051
3766.00,0.0052
3765.00,0.0053
3764.00,0.0053
3763.00,0.0053
3762.00,0.0053
3761.00,0.0053
3760.00,0.0053
3759.00,0.0053
3758.00,0.0051
3757.00,0.0050
3756.00,0.0049
3755.00,0.0047
3754.00,0.0046
3753.00,0.0045
3752.00,0.0045
3751.00,0.0046
3750.00,0.0046
3749.00,0.0046
3748.00,0.0045
3747.00,0.0046
3746.00,0.0047
3745.00,0.0048
3744.00,0.0048
3743.00,0.0046
3742.00,0.0046
3741.00,0.0048
3740.00,0.0051
3739.00,0.0051
3738.00,0.0051
3737.00,0.0050
3736.00,0.0049
3735.00,0.0048
3734.00,0.0047
3733.00,0.0047
3732.00,0.0048
3731.00,0.0049
3730.00,0.0049
3729.00,0.0051
3728.00,0.0052
3727.00,0.0052
3726.00,0.0052
3725.00,0.0051
3724.00,0.0051
3723.00,0.0051
3722.00,0.0052
3721.00,0.0053
3720.00,0.0053
3719.00,0.0054
3718.00,0.0054
3717.00,0.0053
3716.00,0.0052
3715.00,0.0051
3714.00,0.0051
3713.00,0.0052
3712.00,0.0053
3711.00,0.0053
3710.00,0.0052
3709.00,0.0051
3708.00,0.0052
3707.00,0.0054
3706.00,0.0056
3705.00,0.0057
3704.00,0.0057
3703.00,0.0057
3702.00,0.0057
3701.00,0.0056
3700.00,0.0056
3699.00,0.0057
3698.00,0.0058
3697.00,0.0058
3696.00,0.0058
3695.00,0.0057
3694.00,0.0056
3693.00,0.0055
3692.00,0.0055
3691.00,0.0056
3690.00,0.0057
3689.00,0.0058
3688.00,0.0057
3687.00,0.0055
3686.00,0.0055
3685.00,0.0056
3684.00,0.0057
3683.00,0.0058
3682.00,0.0057
3681.00,0.0056
3680.00,0.0054
3679.00,0.0051
3678.00,0.0048
3677.00,0.0047
3676.00,0.0047
3675.00,0.0047
3674.00,0.0045
3673.00,0.0044
3672.00,0.0046
3671.00,0.0049
3670.00,0.0052
3669.00,0.0053
3668.00,0.0053
3667.00,0.0054
3666.00,0.0056
3665.00,0.0057
3664.00,0.0058
3663.00,0.0058
3662.00,0.0059
3661.00,0.0059
3660.00,0.0059
3659.00,0.0059
3658.00,0.0059
3657.00,0.0060
3656.00,0.0060
3655.00,0.0059
3654.00,0.0058
3653.00,0.0057
3652.00,0.0056
3651.00,0.0055
3650.00,0.0055
3649.00,0.0055
3648.00,0.0055
3647.00,0.0055
3646.00,0.0057
3645.00,0.0059
3644.00,0.0062
3643.00,0.0064
3642.00,0.0065
3641.00,0.0065
3640.00,0.0065
3639.00,0.0066
3638.00,0.0066
3637.00,0.0066
3636.00,0.0065
3635.00,0.0065
3634.00,0.0065
3633.00,0.0063
3632.00,0.0062
3631.00,0.0060
3630.00,0.0061
3629.00,0.0063
3628.00,0.0063
3627.00,0.0063
3626.00,0.0063
3625.00,0.0064
3624.00,0.0065
3623.00,0.0065
3622.00,0.0064
3621.00,0.0065
3620.00,0.0066
3619.00,0.0066
3618.00,0.0066
3617.00,0.0066
3616.00,0.0066
3615.00,0.0066
3614.00,0.0067
3613.00,0.0067
3612.00,0.0066
3611.00,0.0066
3610.00,0.0066
3609.00,0.0068
3608.00,0.0069
3607.00,0.0069
3606.00,0.0069
3605.00,0.0068
3604.00,0.0068
3603.00,0.0069
3602.00,0.0070
3601.00,0.0071
3600.00,0.0072
3599.00,0.0071
3598.00,0.0070
3597.00,0.0069
3596.00,0.0068
3595.00,0.0068
3594.00,0.0068
3593.00,0.0068
3592.00,0.0067
3591.00,0.0067
3590.00,0.0067
3589.00,0.0067
3588.00,0.0068
3587.00,0.0069
3586.00,0.0069
3585.00,0.0070
3584.00,0.0070
3583.00,0.0071
3582.00,0.0072
3581.00,0.0072
3580.00,0.0072
3579.00,0.0072
3578.00,0.0072
3577.00,0.0072
3576.00,0.0072
3575.00,0.0072
3574.00,0.0072
3573.00,0.0072
3572.00,0.0071
3571.00,0.0070
3570.00,0.0068
3569.00,0.0068
3568.00,0.0069
3567.00,0.0070
3566.00,0.0071
3565.00,0.0070
3564.00,0.0070
3563.00,0.0071
3562.00,0.0072
3561.00,0.0073
3560.00,0.0074
3559.00,0.0074
3558.00,0.0075
3557.00,0.0075
3556.00,0.0076
3555.00,0.0076
3554.00,0.0076
3553.00,0.0077
3552.00,0.0077
3551.00,0.0077
3550.00,0.0077
3549.00,0.0077
3548.00,0.0077
3547.00,0.0077
3546.00,0.0077
3545.00,0.0078
3544.00,0.0078
3543.00,0.0078
3542.00,0.0078
3541.00,0.0078
3540.00,0.0077
3539.00,0.0076
3538.00,0.0075
3537.00,0.0075
3536.00,0.0075
3535.00,0.0076
3534.00,0.0077
3533.00,0.0078
3532.00,0.0078
3531.00,0.0078
3530.00,0.0077
3529.00,0.0076
3528.00,0.0075
3527.00,0.0075
3526.00,0.0075
3525.00,0.0077
3524.00,0.0078
3523.00,0.0079
3522.00,0.0079
3521.00,0.0078
3520.00,0.0077
3519.00,0.0076
3518.00,0.0076
3517.00,0.0076
3516.00,0.0076
3515.00,0.0076
3514.00,0.0077
3513.00,0.0078
3512.00,0.0079
3511.00,0.0079
3510.00,0.0078
3509.00,0.0077
3508.00,0.0076
3507.00,0.0076
3506.00,0.0076
3505.00,0.0077
3504.00,0.0079
3503.00,0.0080
3502.00,0.0080
3501.00,0.0080
3500.00,0.0079
3499.00,0.0080
3498.00,0.0080
3497.00,0.0081
3496.00,0.0081
3495.00,0.0080
3494.00,0.0080
3493.00,0.0079
3492.00,0.0079
3491.00,0.0079
3490.00,0.0078
3489.00,0.0078
3488.00,0.0078
3487.00,0.0078
3486.00,0.0078
3485.00,0.0078
3484.00,0.0078
3483.00,0.0079
3482.00,0.0079
3481.00,0.0079
3480.00,0.0079
3479.00,0.0079
3478.00,0.0079
3477.00,0.0079
3476.00,0.0079
3475.00,0.0080
3474.00,0.0080
3473.00,0.0081
3472.00,0.0081
3471.00,0.0081
3470.00,0.0081
3469.00,0.0081
3468.00,0.0081
3467.00,0.0081
3466.00,0.0082
3465.00,0.0082
3464.00,0.0081
3463.00,0.0080
3462.00,0.0079
3461.00,0.0079
3460.00,0.0079
3459.00,0.0080
3458.00,0.0081
3457.00,0.0081
3456.00,0.0081
3455.00,0.0080
3454.00,0.0080
3453.00,0.0080
3452.00,0.0081
3451.00,0.0081
3450.00,0.0081
3449.00,0.0081
3448.00,0.0081
3447.00,0.0081
3446.00,0.0081
3445.00,0.0082
3444.00,0.0082
3443.00,0.0082
3442.00,0.0081
3441.00,0.0080
3440.00,0.0079
3439.00,0.0079
3438.00,0.0079
3437.00,0.0079
3436.00,0.0079
3435.00,0.0079
3434.00,0.0079
3433.00,0.0079
3432.00,0.0080
3431.00,0.0080
3430.00,0.0081
3429.00,0.0081
3428.00,0.0081
3427.00,0.0081
3426.00,0.0081
3425.00,0.0082
3424.00,0.0083
3423.00,0.0083
3422.00,0.0083
3421.00,0.0083
3420.00,0.0082
3419.00,0.0081
3418.00,0.0081
3417.00,0.0081
3416.00,0.0081
3415.00,0.0080
3414.00,0.0080
3413.00,0.0080
3412.00,0.0081
3411.00,0.0081
3410.00,0.0082
3409.00,0.0082
3408.00,0.0082
3407.00,0.0082
3406.00,0.0082
3405.00,0.0082
3404.00,0.0081
3403.00,0.0081
3402.00,0.0081
3401.00,0.0081
3400.00,0.0082
3399.00,0.0082
3398.00,0.0082
3397.00,0.0082
3396.00,0.0081
3395.00,0.0080
3394.00,0.0080
3393.00,0.0081
3392.00,0.0081
3391.00,0.0082
3390.00,0.0082
3389.00,0.0082
3388.00,0.0082
3387.00,0.0081
3386.00,0.0081
3385.00,0.0081
3384.00,0.0081
3383.00,0.0081
3382.00,0.0082
3381.00,0.0082
3380.00,0.0082
3379.00,0.0083
3378.00,0.0083
3377.00,0.0083
3376.00,0.0082
3375.00,0.0082
3374.00,0.0081
3373.00,0.0081
3372.00,0.0081
3371.00,0.0081
3370.00,0.0081
3369.00,0.0081
3368.00,0.0081
3367.00,0.0081
3366.00,0.0081
3365.00,0.0080
3364.00,0.0079
3363.00,0.0080
3362.00,0.0081
3361.00,0.0081
3360.00,0.0082
3359.00,0.0082
3358.00,0.0082
3357.00,0.0082
3356.00,0.0082
3355.00,0.0082
3354.00,0.0082
3353.00,0.0082
3352.00,0.0082
3351.00,0.0082
3350.00,0.0082
3349.00,0.0082
3348.00,0.0082
3347.00,0.0082
3346.00,0.0081
3345.00,0.0081
3344.00,0.0080
3343.00,0.0080
3342.00,0.0080
3341.00,0.0080
3340.00,0.0081
3339.00,0.0082
3338.00,0.0083
3337.00,0.0083
3336.00,0.0082
3335.00,0.0081
3334.00,0.0081
3333.00,0.0081
3332.00,0.0080
3331.00,0.0080
3330.00,0.0079
3329.00,0.0079
3328.00,0.0079
3327.00,0.0079
3326.00,0.0080
3325.00,0.0081
3324.00,0.0082
3323.00,0.0082
3322.00,0.0082
3321.00,0.0081
3320.00,0.0081
3319.00,0.0081
3318.00,0.0081
3317.00,0.0081
3316.00,0.0081
3315.00,0.0081
3314.00,0.0081
3313.00,0.0080
3312.00,0.0080
3311.00,0.0079
3310.00,0.0080
3309.00,0.0081
3308.00,0.0082
3307.00,0.0082
3306.00,0.0082
3305.00,0.0082
3304.00,0.0081
3303.00,0.0081
3302.00,0.0081
3301.00,0.0081
3300.00,0.0080
3299.00,0.0080
3298.00,0.0080
3297.00,0.0081
3296.00,0.0081
3295.00,0.0082
3294.00,0.0082
3293.00,0.0081
3292.00,0.0081
3291.00,0.0080
3290.00,0.0080
3289.00,0.0081
3288.00,0.0081
3287.00,0.0081
3286.00,0.0081
3285.00,0.0081
3284.00,0.0081
3283.00,0.0082
3282.00,0.0081
3281.00,0.0081
3280.00,0.0081
3279.00,0.0081
3278.00,0.0081
3277.00,0.0081
3276.00,0.0081
3275.00,0.0081
3274.00,0.0081
3273.00,0.0082
3272.00,0.0082
3271.00,0.0082
3270.00,0.0082
3269.00,0.0082
3268.00,0.0082
3267.00,0.0082
3266.00,0.0081
3265.00,0.0081
3264.00,0.0080
3263.00,0.0079
3262.00,0.0079
3261.00,0.0080
3260.00,0.0080
3259.00,0.0081
3258.00,0.0081
3257.00,0.0080
3256.00,0.0080
3255.00,0.0079
3254.00,0.0080
3253.00,0.0080
3252.00,0.0080
3251.00,0.0080
3250.00,0.0080
3249.00,0.0080
3248.00,0.0080
3247.00,0.0080
3246.00,0.0080
3245.00,0.0080
3244.00,0.0081
3243.00,0.0080
3242.00,0.0080
3241.00,0.0080
3240.00,0.0080
3239.00,0.0080
3238.00,0.0081
3237.00,0.0082
3236.00,0.0083
3235.00,0.0083
3234.00,0.0083
3233.00,0.0083
3232.00,0.0083
3231.00,0.0082
3230.00,0.0081
3229.00,0.0080
3228.00,0.0080
3227.00,0.0080
3226.00,0.0080
3225.00,0.0080
3224.00,0.0080
3223.00,0.0080
3222.00,0.0081
3221.00,0.0080
3220.00,0.0080
3219.00,0.0079
3218.00,0.0079
3217.00,0.0079
3216.00,0.0080
3215.00,0.0081
3214.00,0.0081
3213.00,0.0081
3212.00,0.0080
3211.00,0.0079
3210.00,0.0079
3209.00,0.0079
3208.00,0.0079
3207.00,0.0079
3206.00,0.0079
3205.00,0.0080
3204.00,0.0080
3203.00,0.0081
3202.00,0.0081
3201.00,0.0081
3200.00,0.0081
3199.00,0.0081
3198.00,0.0080
3197.00,0.0080
3196.00,0.0080
3195.00,0.0080
3194.00,0.0080
3193.00,0.0079
3192.00,0.0079
3191.00,0.0079
3190.00,0.0079
3189.00,0.0078
3188.00,0.0078
3187.00,0.0078
3186.00,0.0078
3185.00,0.0078
3184.00,0.0079
3183.00,0.0079
3182.00,0.0079
3181.00,0.0079
3180.00,0.0079
3179.00,0.0078
3178.00,0.0077
3177.00,0.0076
3176.00,0.0076
3175.00,0.0076
3174.00,0.0077
3173.00,0.0077
3172.00,0.0078
3171.00,0.0078
3170.00,0.0078
3169.00,0.0077
3168.00,0.0077
3167.00,0.0077
3166.00,0.0078
3165.00,0.0078
3164.00,0.0079
3163.00,0.0079
3162.00,0.0079
3161.00,0.0078
3160.00,0.0077
3159.00,0.0076
3158.00,0.0075
3157.00,0.0074
3156.00,0.0075
3155.00,0.0076
3154.00,0.0077
3153.00,0.0077
3152.00,0.0077
3151.00,0.0077
3150.00,0.0076
3149.00,0.0076
3148.00,0.0076
3147.00,0.0076
3146.00,0.0076
3145.00,0.0076
3144.00,0.0076
3143.00,0.0076
3142.00,0.0077
3141.00,0.0076
3140.00,0.0076
3139.00,0.0076
3138.00,0.0076
3137.00,0.0076
3136.00,0.0076
3135.00,0.0076
3134.00,0.0076
3133.00,0.0075
3132.00,0.0075
3131.00,0.0076
3130.00,0.0076
3129.00,0.0076
3128.00,0.0076
3127.00,0.0076
3126.00,0.0076
3125.00,0.0076
3124.00,0.0076
3123.00,0.0075
3122.00,0.0075
3121.00,0.0075
3120.00,0.0075
3119.00,0.0075
3118.00,0.0076
3117.00,0.0076
3116.00,0.0075
3115.00,0.0075
3114.00,0.0075
3113.00,0.0076
3112.00,0.0076
3111.00,0.0075
3110.00,0.0075
3109.00,0.0075
3108.00,0.0075
3107.00,0.0075
3106.00,0.0075
3105.00,0.0076
3104.00,0.0075
3103.00,0.0075
3102.00,0.0074
3101.00,0.0074
3100.00,0.0074
3099.00,0.0073
3098.00,0.0073
3097.00,0.0074
3096.00,0.0074
3095.00,0.0075
3094.00,0.0076
3093.00,0.0076
3092.00,0.0076
3091.00,0.0076
3090.00,0.0075
3089.00,0.0074
3088.00,0.0073
3087.00,0.0073
3086.00,0.0073
3085.00,0.0074
3084.00,0.0074
3083.00,0.0074
3082.00,0.0074
3081.00,0.0074
3080.00,0.0075
3079.00,0.0075
3078.00,0.0075
3077.00,0.0074
3076.00,0.0074
3075.00,0.0074
3074.00,0.0074
3073.00,0.0074
3072.00,0.0074
3071.00,0.0075
3070.00,0.0075
3069.00,0.0075
3068.00,0.0075
3067.00,0.0075
3066.00,0.0074
3065.00,0.0073
3064.00,0.0073
3063.00,0.0072
3062.00,0.0073
3061.00,0.0073
3060.00,0.0074
3059.00,0.0074
3058.00,0.0074
3057.00,0.0074
3056.00,0.0074
3055.00,0.0073
3054.00,0.0073
3053.00,0.0073
3052.00,0.0072
3051.00,0.0073
3050.00,0.0074
3049.00,0.0074
3048.00,0.0075
3047.00,0.0075
3046.00,0.0074
3045.00,0.0074
3044.00,0.0073
3043.00,0.0073
3042.00,0.0072
3041.00,0.0071
3040.00,0.0071
3039.00,0.0071
3038.00,0.0071
3037.00,0.0072
3036.00,0.0072
3035.00,0.0072
3034.00,0.0072
3033.00,0.0072
3032.00,0.0072
3031.00,0.0072
3030.00,0.0071
3029.00,0.0071
3028.00,0.0070
3027.00,0.0070
3026.00,0.0070
3025.00,0.0070
3024.00,0.0070
3023.00,0.0070
3022.00,0.0070
3021.00,0.0070
3020.00,0.0070
3019.00,0.0069
3018.00,0.0069
3017.00,0.0068
3016.00,0.0068
3015.00,0.0067
3014.00,0.0067
3013.00,0.0066
3012.00,0.0065
3011.00,0.0065
3010.00,0.0065
3009.00,0.0064
3008.00,0.0062
3007.00,0.0061
3006.00,0.0060
3005.00,0.0059
3004.00,0.0058
3003.00,0.0057
3002.00,0.0056
3001.00,0.0054
3000.00,0.0053
2999.00,0.0052
2998.00,0.0051
2997.00,0.0050
2996.00,0.0049
2995.00,0.0048
2994.00,0.0048
2993.00,0.0048
2992.00,0.0047
2991.00,0.0046
2990.00,0.0046
2989.00,0.0045
2988.00,0.0044
2987.00,0.0043
2986.00,0.0040
2985.00,0.0037
2984.00,0.0034
2983.00,0.0031
2982.00,0.0030
2981.00,0.0030
2980.00,0.0031
2979.00,0.0033
2978.00,0.0035
2977.00,0.0037
2976.00,0.0038
2975.00,0.0039
2974.00,0.0038
2973.00,0.0037
2972.00,0.0037
2971.00,0.0037
2970.00,0.0038
2969.00,0.0040
2968.00,0.0042
2967.00,0.0043
2966.00,0.0044
2965.00,0.0044
2964.00,0.0045
2963.00,0.0046
2962.00,0.0046
2961.00,0.0047
2960.00,0.0047
2959.00,0.0047
2958.00,0.0048
2957.00,0.0048
2956.00,0.0049
2955.00,0.0051
2954.00,0.0052
2953.00,0.0053
2952.00,0.0053
2951.00,0.0054
2950.00,0.0055
2949.00,0.0055
2948.00,0.0056
2947.00,0.0056
2946.00,0.0056
2945.00,0.0056
2944.00,0.0057
2943.00,0.0058
2942.00,0.0059
2941.00,0.0059
2940.00,0.0059
2939.00,0.0058
2938.00,0.0058
2937.00,0.0058
2936.00,0.0059
2935.00,0.0059
2934.00,0.0059
2933.00,0.0059
2932.00,0.0059
2931.00,0.0059
2930.00,0.0059
2929.00,0.0059
2928.00,0.0059
2927.00,0.0060
2926.00,0.0059
2925.00,0.0059
2924.00,0.0058
2923.00,0.0058
2922.00,0.0057
2921.00,0.0056
2920.00,0.0055
2919.00,0.0054
2918.00,0.0053
2917.00,0.0052
2916.00,0.0052
2915.00,0.0052
2914.00,0.0053
2913.00,0.0054
2912.00,0.0055
2911.00,0.0055
2910.00,0.0056
2909.00,0.0056
2908.00,0.0056
2907.00,0.0056
2906.00,0.0055
2905.00,0.0055
2904.00,0.0054
2903.00,0.0054
2902.00,0.0054
2901.00,0.0054
2900.00,0.0054
2899.00,0.0054
2898.00,0.0054
2897.00,0.0054
2896.00,0.0054
2895.00,0.0054
2894.00,0.0054
2893.00,0.0053
2892.00,0.0053
2891.00,0.0053
2890.00,0.0053
2889.00,0.0053
2888.00,0.0053
2887.00,0.0053
2886.00,0.0053
2885.00,0.0052
2884.00,0.0052
2883.00,0.0052
2882.00,0.0052
2881.00,0.0052
2880.00,0.0053
2879.00,0.0053
2878.00,0.0054
2877.00,0.0055
2876.00,0.0055
2875.00,0.0055
2874.00,0.0055
2873.00,0.0054
2872.00,0.0055
2871.00,0.0055
2870.00,0.0055
2869.00,0.0055
2868.00,0.0056
2867.00,0.0056
2866.00,0.0056
2865.00,0.0057
2864.00,0.0057
2863.00,0.0057
2862.00,0.0057
2861.00,0.0058
2860.00,0.0058
2859.00,0.0059
2858.00,0.0060
2857.00,0.0061
2856.00,0.0061
2855.00,0.0060
2854.00,0.0060
2853.00,0.0059
2852.00,0.0059
2851.00,0.0059
2850.00,0.0059
2849.00,0.0059
2848.00,0.0059
2847.00,0.0059
2846.00,0.0059
2845.00,0.0059
2844.00,0.0059
2843.00,0.0059
2842.00,0.0059
2841.00,0.0059
2840.00,0.0058
2839.00,0.0058
2838.00,0.0058
2837.00,0.0058
2836.00,0.0059
2835.00,0.0060
2834.00,0.0060
2833.00,0.0060
2832.00,0.0059
2831.00,0.0058
2830.00,0.0058
2829.00,0.0058
2828.00,0.0058
2827.00,0.0059
2826.00,0.0059
2825.00,0.0059
2824.00,0.0059
2823.00,0.0059
2822.00,0.0059
2821.00,0.0058
2820.00,0.0058
2819.00,0.0057
2818.00,0.0057
2817.00,0.0057
2816.00,0.0057
2815.00,0.0057
2814.00,0.0057
2813.00,0.0056
2812.00,0.0056
2811.00,0.0056
2810.00,0.0056
2809.00,0.0056
2808.00,0.0056
2807.00,0.0056
2806.00,0.0057
2805.00,0.0057
2804.00,0.0057
2803.00,0.0056
2802.00,0.0056
2801.00,0.0056
2800.00,0.0057
2799.00,0.0057
2798.00,0.0057
2797.00,0.0057
2796.00,0.0057
2795.00,0.0057
2794.00,0.0056
2793.00,0.0056
2792.00,0.0056
2791.00,0.0056
2790.00,0.0057
2789.00,0.0056
2788.00,0.0056
2787.00,0.0056
2786.00,0.0056
2785.00,0.0056
2784.00,0.0056
2783.00,0.0055
2782.00,0.0055
2781.00,0.0054
2780.00,0.0054
2779.00,0.0054
2778.00,0.0054
2777.00,0.0055
2776.00,0.0055
2775.00,0.0055
2774.00,0.0055
2773.00,0.0055
2772.00,0.0055
2771.00,0.0055
2770.00,0.0054
2769.00,0.0053
2768.00,0.0053
2767.00,0.0053
2766.00,0.0053
2765.00,0.0053
2764.00,0.0053
2763.00,0.0054
2762.00,0.0054
2761.00,0.0054
2760.00,0.0054
2759.00,0.0054
2758.00,0.0054
2757.00,0.0053
2756.00,0.0053
2755.00,0.0053
2754.00,0.0053
2753.00,0.0054
2752.00,0.0054
2751.00,0.0054
2750.00,0.0054
2749.00,0.0054
2748.00,0.0054
2747.00,0.0054
2746.00,0.0054
2745.00,0.0054
2744.00,0.0054
2743.00,0.0054
2742.00,0.0054
2741.00,0.0053
2740.00,0.0053
2739.00,0.0053
2738.00,0.0052
2737.00,0.0052
2736.00,0.0052
2735.00,0.0052
2734.00,0.0052
2733.00,0.0053
2732.00,0.0053
2731.00,0.0053
2730.00,0.0052
2729.00,0.0052
2728.00,0.0052
2727.00,0.0052
2726.00,0.0052
2725.00,0.0052
2724.00,0.0052
2723.00,0.0052
2722.00,0.0052
2721.00,0.0051
2720.00,0.0051
2719.00,0.0052
2718.00,0.0052
2717.00,0.0052
2716.00,0.0053
2715.00,0.0053
2714.00,0.0053
2713.00,0.0053
2712.00,0.0053
2711.00,0.0053
2710.00,0.0052
2709.00,0.0052
2708.00,0.0052
2707.00,0.0051
2706.00,0.0051
2705.00,0.0051
2704.00,0.0051
2703.00,0.0051
2702.00,0.0050
2701.00,0.0050
2700.00,0.0051
2699.00,0.0051
2698.00,0.0051
2697.00,0.0051
2696.00,0.0051
2695.00,0.0051
2694.00,0.0051
2693.00,0.0051
2692.00,0.0051
2691.00,0.0051
2690.00,0.0051
2689.00,0.0051
2688.00,0.0051
2687.00,0.0050
2686.00,0.0051
2685.00,0.0051
2684.00,0.0051
2683.00,0.0051
2682.00,0.0051
2681.00,0.0051
2680.00,0.0050
2679.00,0.0050
2678.00,0.0049
2677.00,0.0049
2676.00,0.0049
2675.00,0.0049
2674.00,0.0049
2673.00,0.0050
2672.00,0.0050
2671.00,0.0050
2670.00,0.0049
2669.00,0.0049
2668.00,0.0049
2667.00,0.0049
2666.00,0.0050
2665.00,0.0050
2664.00,0.0050
2663.00,0.0051
2662.00,0.0051
2661.00,0.0051
2660.00,0.0051
2659.00,0.0051
2658.00,0.0051
2657.00,0.0051
2656.00,0.0051
2655.00,0.0051
2654.00,0.0051
2653.00,0.0052
2652.00,0.0052
2651.00,0.0052
2650.00,0.0052
2649.00,0.0052
2648.00,0.0051
2647.00,0.0051
2646.00,0.0050
2645.00,0.0050
2644.00,0.0051
2643.00,0.0051
2642.00,0.0051
2641.00,0.0051
2640.00,0.0052
2639.00,0.0052
2638.00,0.0051
2637.00,0.0051
2636.00,0.0050
2635.00,0.0050
2634.00,0.0051
2633.00,0.0051
2632.00,0.0051
2631.00,0.0051
2630.00,0.0050
2629.00,0.0050
2628.00,0.0049
2627.00,0.0049
2626.00,0.0049
2625.00,0.0050
2624.00,0.0050
2623.00,0.0051
2622.00,0.0051
2621.00,0.0051
2620.00,0.0051
2619.00,0.0051
2618.00,0.0051
2617.00,0.0051
2616.00,0.0051
2615.00,0.0050
2614.00,0.0050
2613.00,0.0050
2612.00,0.0051
2611.00,0.0051
2610.00,0.0051
2609.00,0.0050
2608.00,0.0049
2607.00,0.0049
2606.00,0.0050
2605.00,0.0050
2604.00,0.0051
2603.00,0.0051
2602.00,0.0051
2601.00,0.0050
2600.00,0.0050
2599.00,0.0049
2598.00,0.0049
2597.00,0.0049
2596.00,0.0049
2595.00,0.0049
2594.00,0.0049
2593.00,0.0050
2592.00,0.0050
2591.00,0.0050
2590.00,0.0050
2589.00,0.0050
2588.00,0.0050
2587.00,0.0049
2586.00,0.0049
2585.00,0.0048
2584.00,0.0048
2583.00,0.0048
2582.00,0.0048
2581.00,0.0049
2580.00,0.0050
2579.00,0.0050
2578.00,0.0050
2577.00,0.0049
2576.00,0.0048
2575.00,0.0047
2574.00,0.0047
2573.00,0.0048
2572.00,0.0048
2571.00,0.0048
2570.00,0.0047
2569.00,0.0047
2568.00,0.0048
2567.00,0.0049
2566.00,0.0050
2565.00,0.0050
2564.00,0.0050
2563.00,0.0049
2562.00,0.0050
2561.00,0.0050
2560.00,0.0050
2559.00,0.0049
2558.00,0.0049
2557.00,0.0050
2556.00,0.0050
2555.00,0.0051
2554.00,0.0050
2553.00,0.0049
2552.00,0.0048
2551.00,0.0047
2550.00,0.0046
2549.00,0.0045
2548.00,0.0045
2547.00,0.0044
2546.00,0.0045
2545.00,0.0045
2544.00,0.0046
2543.00,0.0046
2542.00,0.0046
2541.00,0.0045
2540.00,0.0045
2539.00,0.0044
2538.00,0.0043
2537.00,0.0043
2536.00,0.0043
2535.00,0.0044
2534.00,0.0044
2533.00,0.0045
2532.00,0.0045
2531.00,0.0045
2530.00,0.0044
2529.00,0.0043
2528.00,0.0043
2527.00,0.0043
2526.00,0.0043
2525.00,0.0043
2524.00,0.0043
2523.00,0.0043
2522.00,0.0044
2521.00,0.0044
2520.00,0.0044
2519.00,0.0045
2518.00,0.0046
2517.00,0.0046
2516.00,0.0047
2515.00,0.0046
2514.00,0.0045
2513.00,0.0044
2512.00,0.0044
2511.00,0.0045
2510.00,0.0046
2509.00,0.0046
2508.00,0.0046
2507.00,0.0046
2506.00,0.0046
2505.00,0.0045
2504.00,0.0045
2503.00,0.0045
2502.00,0.0045
2501.00,0.0046
2500.00,0.0046
2499.00,0.0047
2498.00,0.0047
2497.00,0.0046
2496.00,0.0046
2495.00,0.0047
2494.00,0.0047
2493.00,0.0048
2492.00,0.0047
2491.00,0.0047
2490.00,0.0047
2489.00,0.0047
2488.00,0.0047
2487.00,0.0046
2486.00,0.0046
2485.00,0.0045
2484.00,0.0044
2483.00,0.0044
2482.00,0.0044
2481.00,0.0045
2480.00,0.0045
2479.00,0.0045
2478.00,0.0045
2477.00,0.0044
2476.00,0.0044
2475.00,0.0043
2474.00,0.0044
2473.00,0.0044
2472.00,0.0044
2471.00,0.0045
2470.00,0.0045
2469.00,0.0045
2468.00,0.0044
2467.00,0.0044
2466.00,0.0043
2465.00,0.0043
2464.00,0.0043
2463.00,0.0043
2462.00,0.0043
2461.00,0.0043
2460.00,0.0044
2459.00,0.0045
2458.00,0.0045
2457.00,0.0045
2456.00,0.0045
2455.00,0.0046
2454.00,0.0046
2453.00,0.0047
2452.00,0.0048
2451.00,0.0048
2450.00,0.0047
2449.00,0.0046
2448.00,0.0045
2447.00,0.0045
2446.00,0.0044
2445.00,0.0043
2444.00,0.0043
2443.00,0.0043
2442.00,0.0043
2441.00,0.0043
2440.00,0.0044
2439.00,0.0044
2438.00,0.0044
2437.00,0.0044
2436.00,0.0044
2435.00,0.0044
2434.00,0.0043
2433.00,0.0043
2432.00,0.0043
2431.00,0.0043
2430.00,0.0044
2429.00,0.0044
2428.00,0.0044
2427.00,0.0044
2426.00,0.0043
2425.00,0.0043
2424.00,0.0043
2423.00,0.0043
2422.00,0.0043
2421.00,0.0043
2420.00,0.0043
2419.00,0.0043
2418.00,0.0043
2417.00,0.0042
2416.00,0.0041
2415.00,0.0041
2414.00,0.0041
2413.00,0.0042
2412.00,0.0042
2411.00,0.0042
2410.00,0.0043
2409.00,0.0043
2408.00,0.0043
2407.00,0.0042
2406.00,0.0042
2405.00,0.0042
2404.00,0.0042
2403.00,0.0041
2402.00,0.0041
2401.00,0.0040
2400.00,0.0040
2399.00,0.0040
2398.00,0.0041
2397.00,0.0041
2396.00,0.0040
2395.00,0.0040
2394.00,0.0040
2393.00,0.0040
2392.00,0.0040
2391.00,0.0040
2390.00,0.0040
2389.00,0.0039
2388.00,0.0039
2387.00,0.0039
2386.00,0.0039
2385.00,0.0039
2384.00,0.0038
2383.00,0.0037
2382.00,0.0037
2381.00,0.0038
2380.00,0.0039
2379.00,0.0039
2378.00,0.0039
2377.00,0.0038
2376.00,0.0038
2375.00,0.0037
2374.00,0.0037
2373.00,0.0037
2372.00,0.0037
2371.00,0.0037
2370.00,0.0035
2369.00,0.0033
2368.00,0.0032
2367.00,0.0033
2366.00,0.0036
2365.00,0.0039
2364.00,0.0040
2363.00,0.0039
2362.00,0.0037
2361.00,0.0036
2360.00,0.0036
2359.00,0.0037
2358.00,0.0037
2357.00,0.0037
2356.00,0.0037
2355.00,0.0036
2354.00,0.0036
2353.00,0.0037
2352.00,0.0037
2351.00,0.0037
2350.00,0.0037
2349.00,0.0037
2348.00,0.0037
2347.00,0.0037
2346.00,0.0036
2345.00,0.0036
2344.00,0.0036
2343.00,0.0037
2342.00,0.0038
2341.00,0.0039
2340.00,0.0039
2339.00,0.0038
2338.00,0.0037
2337.00,0.0035
2336.00,0.0035
2335.00,0.0036
2334.00,0.0037
2333.00,0.0037
2332.00,0.0037
2331.00,0.0036
2330.00,0.0036
2329.00,0.0036
2328.00,0.0036
2327.00,0.0038
2326.00,0.0039
2325.00,0.0040
2324.00,0.0040
2323.00,0.0039
2322.00,0.0039
2321.00,0.0039
2320.00,0.0038
2319.00,0.0037
2318.00,0.0036
2317.00,0.0036
2316.00,0.0037
2315.00,0.0037
2314.00,0.0038
2313.00,0.0038
2312.00,0.0038
2311.00,0.0039
2310.00,0.0040
2309.00,0.0041
2308.00,0.0041
2307.00,0.0040
2306.00,0.0040
2305.00,0.0039
2304.00,0.0038
2303.00,0.0037
2302.00,0.0037
2301.00,0.0037
2300.00,0.0037
2299.00,0.0038
2298.00,0.0038
2297.00,0.0038
2296.00,0.0037
2295.00,0.0037
2294.00,0.0038
2293.00,0.0040
2292.00,0.0042
2291.00,0.0043
2290.00,0.0043
2289.00,0.0042
2288.00,0.0042
2287.00,0.0043
2286.00,0.0044
2285.00,0.0045
2284.00,0.0046
2283.00,0.0047
2282.00,0.0046
2281.00,0.0045
2280.00,0.0045
2279.00,0.0045
2278.00,0.0045
2277.00,0.0044
2276.00,0.0043
2275.00,0.0042
2274.00,0.0040
2273.00,0.0039
2272.00,0.0039
2271.00,0.0039
2270.00,0.0039
2269.00,0.0039
2268.00,0.0039
2267.00,0.0039
2266.00,0.0039
2265.00,0.0040
2264.00,0.0040
2263.00,0.0040
2262.00,0.0041
2261.00,0.0042
2260.00,0.0043
2259.00,0.0043
2258.00,0.0041
2257.00,0.0038
2256.00,0.0036
2255.00,0.0035
2254.00,0.0036
2253.00,0.0037
2252.00,0.0037
2251.00,0.0038
2250.00,0.0037
2249.00,0.0037
2248.00,0.0037
2247.00,0.0038
2246.00,0.0040
2245.00,0.0041
2244.00,0.0042
2243.00,0.0042
2242.00,0.0041
2241.00,0.0040
2240.00,0.0039
2239.00,0.0039
2238.00,0.0038
2237.00,0.0038
2236.00,0.0038
2235.00,0.0038
2234.00,0.0039
2233.00,0.0039
2232.00,0.0039
2231.00,0.0037
2230.00,0.0036
2229.00,0.0036
2228.00,0.0036
2227.00,0.0037
2226.00,0.0037
2225.00,0.0037
2224.00,0.0036
2223.00,0.0034
2222.00,0.0033
2221.00,0.0032
2220.00,0.0033
2219.00,0.0034
2218.00,0.0036
2217.00,0.0037
2216.00,0.0038
2215.00,0.0039
2214.00,0.0039
2213.00,0.0039
2212.00,0.0037
2211.00,0.0036
2210.00,0.0035
2209.00,0.0035
2208.00,0.0035
2207.00,0.0035
2206.00,0.0036
2205.00,0.0036
2204.00,0.0036
2203.00,0.0036
2202.00,0.0036
2201.00,0.0035
2200.00,0.0034
2199.00,0.0034
2198.00,0.0035
2197.00,0.0036
2196.00,0.0037
2195.00,0.0037
2194.00,0.0036
2193.00,0.0034
2192.00,0.0032
2191.00,0.0030
2190.00,0.0028
2189.00,0.0026
2188.00,0.0027
2187.00,0.0031
2186.00,0.0036
2185.00,0.0038
2184.00,0.0037
2183.00,0.0035
2182.00,0.0033
2181.00,0.0033
2180.00,0.0034
2179.00,0.0035
2178.00,0.0037
2177.00,0.0038
2176.00,0.0037
2175.00,0.0035
2174.00,0.0033
2173.00,0.0033
2172.00,0.0034
2171.00,0.0037
2170.00,0.0040
2169.00,0.0041
2168.00,0.0040
2167.00,0.0040
2166.00,0.0040
2165.00,0.0043
2164.00,0.0045
2163.00,0.0047
2162.00,0.0046
2161.00,0.0043
2160.00,0.0037
2159.00,0.0030
2158.00,0.0023
2157.00,0.0021
2156.00,0.0021
2155.00,0.0023
2154.00,0.0027
2153.00,0.0030
2152.00,0.0031
2151.00,0.0029
2150.00,0.0026
2149.00,0.0024
2148.00,0.0024
2147.00,0.0026
2146.00,0.0029
2145.00,0.0031
2144.00,0.0033
2143.00,0.0033
2142.00,0.0034
2141.00,0.0035
2140.00,0.0035
2139.00,0.0034
2138.00,0.0033
2137.00,0.0031
2136.00,0.0029
2135.00,0.0027
2134.00,0.0026
2133.00,0.0027
2132.00,0.0028
2131.00,0.0029
2130.00,0.0030
2129.00,0.0031
2128.00,0.0033
2127.00,0.0034
2126.00,0.0034
2125.00,0.0033
2124.00,0.0032
2123.00,0.0032
2122.00,0.0032
2121.00,0.0033
2120.00,0.0033
2119.00,0.0033
2118.00,0.0033
2117.00,0.0032
2116.00,0.0032
2115.00,0.0031
2114.00,0.0030
2113.00,0.0030
2112.00,0.0031
2111.00,0.0033
2110.00,0.0035
2109.00,0.0036
2108.00,0.0037
2107.00,0.0038
2106.00,0.0039
2105.00,0.0038
2104.00,0.0037
2103.00,0.0036
2102.00,0.0036
2101.00,0.0035
2100.00,0.0034
2099.00,0.0031
2098.00,0.0030
2097.00,0.0029
2096.00,0.0030
2095.00,0.0031
2094.00,0.0032
2093.00,0.0032
2092.00,0.0033
2091.00,0.0033
2090.00,0.0032
2089.00,0.0032
2088.00,0.0033
2087.00,0.0033
2086.00,0.0034
2085.00,0.0035
2084.00,0.0037
2083.00,0.0037
2082.00,0.0037
2081.00,0.0036
2080.00,0.0036
2079.00,0.0037
2078.00,0.0037
2077.00,0.0037
2076.00,0.0038
2075.00,0.0038
2074.00,0.0037
2073.00,0.0037
2072.00,0.0037
2071.00,0.0038
2070.00,0.0038
2069.00,0.0037
2068.00,0.0035
2067.00,0.0033
2066.00,0.0033
2065.00,0.0034
2064.00,0.0035
2063.00,0.0036
2062.00,0.0036
2061.00,0.0036
2060.00,0.0035
2059.00,0.0034
2058.00,0.0034
2057.00,0.0035
2056.00,0.0035
2055.00,0.0035
2054.00,0.0036
2053.00,0.0038
2052.00,0.0040
2051.00,0.0040
2050.00,0.0038
2049.00,0.0035
2048.00,0.0033
2047.00,0.0033
2046.00,0.0034
2045.00,0.0037
2044.00,0.0040
2043.00,0.0042
2042.00,0.0042
2041.00,0.0040
2040.00,0.0037
2039.00,0.0036
2038.00,0.0038
2037.00,0.0042
2036.00,0.0044
2035.00,0.0043
2034.00,0.0040
2033.00,0.0038
2032.00,0.0040
2031.00,0.0043
2030.00,0.0044
2029.00,0.0041
2028.00,0.0038
2027.00,0.0035
2026.00,0.0034
2025.00,0.0032
2024.00,0.0030
2023.00,0.0029
2022.00,0.0027
2021.00,0.0027
2020.00,0.0027
2019.00,0.0027
2018.00,0.0026
2017.00,0.0025
2016.00,0.0026
2015.00,0.0028
2014.00,0.0030
2013.00,0.0032
2012.00,0.0032
2011.00,0.0031
2010.00,0.0032
2009.00,0.0032
2008.00,0.0032
2007.00,0.0031
2006.00,0.0029
2005.00,0.0028
2004.00,0.0027
2003.00,0.0029
2002.00,0.0034
2001.00,0.0038
2000.00,0.0040
1999.00,0.0039
1998.00,0.0036
1997.00,0.0034
1996.00,0.0035
1995.00,0.0038
1994.00,0.0040
1993.00,0.0042
1992.00,0.0041
1991.00,0.0039
1990.00,0.0036
1989.00,0.0034
1988.00,0.0034
1987.00,0.0035
1986.00,0.0036
1985.00,0.0037
1984.00,0.0037
1983.00,0.0038
1982.00,0.0038
1981.00,0.0037
1980.00,0.0036
1979.00,0.0032
1978.00,0.0028
1977.00,0.0025
1976.00,0.0025
1975.00,0.0028
1974.00,0.0031
1973.00,0.0032
1972.00,0.0030
1971.00,0.0027
1970.00,0.0026
1969.00,0.0028
1968.00,0.0030
1967.00,0.0030
1966.00,0.0029
1965.00,0.0028
1964.00,0.0029
1963.00,0.0030
1962.00,0.0030
1961.00,0.0030
1960.00,0.0029
1959.00,0.0029
1958.00,0.0028
1957.00,0.0027
1956.00,0.0026
1955.00,0.0027
1954.00,0.0028
1953.00,0.0030
1952.00,0.0031
1951.00,0.0030
1950.00,0.0029
1949.00,0.0027
1948.00,0.0027
1947.00,0.0027
1946.00,0.0027
1945.00,0.0027
1944.00,0.0026
1943.00,0.0026
1942.00,0.0026
1941.00,0.0026
1940.00,0.0026
1939.00,0.0024
1938.00,0.0023
1937.00,0.0023
1936.00,0.0023
1935.00,0.0023
1934.00,0.0023
1933.00,0.0023
1932.00,0.0024
1931.00,0.0026
1930.00,0.0028
1929.00,0.0029
1928.00,0.0030
1927.00,0.0031
1926.00,0.0032
1925.00,0.0032
1924.00,0.0031
1923.00,0.0030
1922.00,0.0029
1921.00,0.0028
1920.00,0.0028
1919.00,0.0027
1918.00,0.0026
1917.00,0.0026
1916.00,0.0027
1915.00,0.0027
1914.00,0.0028
1913.00,0.0028
1912.00,0.0029
1911.00,0.0029
1910.00,0.0028
1909.00,0.0027
1908.00,0.0026
1907.00,0.0026
1906.00,0.0027
1905.00,0.0028
1904.00,0.0029
1903.00,0.0029
1902.00,0.0029
1901.00,0.0028
1900.00,0.0028
1899.00,0.0029
1898.00,0.0029
1897.00,0.0029
1896.00,0.0028
1895.00,0.0026
1894.00,0.0026
1893.00,0.0027
1892.00,0.0028
1891.00,0.0028
1890.00,0.0028
1889.00,0.0028
1888.00,0.0028
1887.00,0.0027
1886.00,0.0027
1885.00,0.0027
1884.00,0.0027
1883.00,0.0027
1882.00,0.0028
1881.00,0.0027
1880.00,0.0027
1879.00,0.0027
1878.00,0.0026
1877.00,0.0025
1876.00,0.0025
1875.00,0.0026
1874.00,0.0027
1873.00,0.0028
1872.00,0.0029
1871.00,0.0029
1870.00,0.0029
1869.00,0.0029
1868.00,0.0028
1867.00,0.0028
1866.00,0.0028
1865.00,0.0028
1864.00,0.0027
1863.00,0.0026
1862.00,0.0025
1861.00,0.0024
1860.00,0.0024
1859.00,0.0024
1858.00,0.0025
1857.00,0.0026
1856.00,0.0027
1855.00,0.0027
1854.00,0.0027
1853.00,0.0026
1852.00,0.0026
1851.00,0.0026
1850.00,0.0027
1849.00,0.0027
1848.00,0.0027
1847.00,0.0027
1846.00,0.0028
1845.00,0.0028
1844.00,0.0027
1843.00,0.0026
1842.00,0.0027
1841.00,0.0027
1840.00,0.0027
1839.00,0.0027
1838.00,0.0026
1837.00,0.0027
1836.00,0.0027
1835.00,0.0028
1834.00,0.0028
1833.00,0.0028
1832.00,0.0029
1831.00,0.0030
1830.00,0.0030
1829.00,0.0029
1828.00,0.0029
1827.00,0.0029
1826.00,0.0028
1825.00,0.0028
1824.00,0.0027
1823.00,0.0027
1822.00,0.0027
1821.00,0.0027
1820.00,0.0027
1819.00,0.0026
1818.00,0.0026
1817.00,0.0025
1816.00,0.0025
1815.00,0.0025
1814.00,0.0026
1813.00,0.0026
1812.00,0.0027
1811.00,0.0027
1810.00,0.0027
1809.00,0.0027
1808.00,0.0028
1807.00,0.0028
1806.00,0.0028
1805.00,0.0028
1804.00,0.0028
1803.00,0.0028
1802.00,0.0028
1801.00,0.0028
1800.00,0.0028
1799.00,0.0028
1798.00,0.0029
1797.00,0.0029
1796.00,0.0029
1795.00,0.0029
1794.00,0.0029
1793.00,0.0030
1792.00,0.0031
1791.00,0.0032
1790.00,0.0032
1789.00,0.0032
1788.00,0.0032
1787.00,0.0033
1786.00,0.0033
1785.00,0.0033
1784.00,0.0033
1783.00,0.0034
1782.00,0.0034
1781.00,0.0034
1780.00,0.0033
1779.00,0.0033
1778.00,0.0033
1777.00,0.0034
1776.00,0.0035
1775.00,0.0036
1774.00,0.0036
1773.00,0.0036
1772.00,0.0036
1771.00,0.0035
1770.00,0.0036
1769.00,0.0037
1768.00,0.0037
1767.00,0.0037
1766.00,0.0037
1765.00,0.0038
1764.00,0.0038
1763.00,0.0038
1762.00,0.0037
1761.00,0.0037
1760.00,0.0037
1759.00,0.0038
1758.00,0.0038
1757.00,0.0038
1756.00,0.0038
1755.00,0.0039
1754.00,0.0041
1753.00,0.0041
1752.00,0.0040
1751.00,0.0039
1750.00,0.0039
1749.00,0.0040
1748.00,0.0040
1747.00,0.0041
1746.00,0.0041
1745.00,0.0042
1744.00,0.0042
1743.00,0.0042
1742.00,0.0043
1741.00,0.0043
1740.00,0.0044
1739.00,0.0044
1738.00,0.0044
1737.00,0.0044
1736.00,0.0045
1735.00,0.0045
1734.00,0.0045
1733.00,0.0044
1732.00,0.0044
1731.00,0.0044
1730.00,0.0045
1729.00,0.0045
1728.00,0.0045
1727.00,0.0046
1726.00,0.0046
1725.00,0.0047
1724.00,0.0047
1723.00,0.0047
1722.00,0.0047
1721.00,0.0047
1720.00,0.0047
1719.00,0.0047
1718.00,0.0048
1717.00,0.0048
1716.00,0.0049
1715.00,0.0050
1714.00,0.0051
1713.00,0.0052
1712.00,0.0052
1711.00,0.0052
1710.00,0.0052
1709.00,0.0052
1708.00,0.0052
1707.00,0.0053
1706.00,0.0053
1705.00,0.0053
1704.00,0.0054
1703.00,0.0055
1702.00,0.0056
1701.00,0.0056
1700.00,0.0055
1699.00,0.0054
1698.00,0.0054
1697.00,0.0055
1696.00,0.0055
1695.00,0.0054
1694.00,0.0054
1693.00,0.0055
1692.00,0.0055
1691.00,0.0055
1690.00,0.0055
1689.00,0.0055
1688.00,0.0055
1687.00,0.0054
1686.00,0.0053
1685.00,0.0053
1684.00,0.0053
1683.00,0.0053
1682.00,0.0053
1681.00,0.0053
1680.00,0.0052
1679.00,0.0052
1678.00,0.0053
1677.00,0.0054
1676.00,0.0056
1675.00,0.0056
1674.00,0.0056
1673.00,0.0056
1672.00,0.0055
1671.00,0.0055
1670.00,0.0055
1669.00,0.0055
1668.00,0.0055
1667.00,0.0055
1666.00,0.0055
1665.00,0.0055
1664.00,0.0055
1663.00,0.0054
1662.00,0.0054
1661.00,0.0055
1660.00,0.0056
1659.00,0.0057
1658.00,0.0058
1657.00,0.0058
1656.00,0.0057
1655.00,0.0055
1654.00,0.0055
1653.00,0.0056
1652.00,0.0055
1651.00,0.0056
1650.00,0.0057
1649.00,0.0057
1648.00,0.0057
1647.00,0.0058
1646.00,0.0059
1645.00,0.0059
1644.00,0.0060
1643.00,0.0060
1642.00,0.0060
1641.00,0.0059
1640.00,0.0059
1639.00,0.0059
1638.00,0.0059
1637.00,0.0059
1636.00,0.0061
1635.00,0.0062
1634.00,0.0062
1633.00,0.0061
1632.00,0.0060
1631.00,0.0059
1630.00,0.0059
1629.00,0.0059
1628.00,0.0060
1627.00,0.0060
1626.00,0.0061
1625.00,0.0062
1624.00,0.0063
1623.00,0.0063
1622.00,0.0062
1621.00,0.0062
1620.00,0.0062
1619.00,0.0061
1618.00,0.0061
1617.00,0.0060
1616.00,0.0060
1615.00,0.0061
1614.00,0.0062
1613.00,0.0062
1612.00,0.0062
1611.00,0.0061
1610.00,0.0061
1609.00,0.0061
1608.00,0.0061
1607.00,0.0061
1606.00,0.0062
1605.00,0.0062
1604.00,0.0062
1603.00,0.0062
1602.00,0.0061
1601.00,0.0060
1600.00,0.0059
1599.00,0.0059
1598.00,0.0059
1597.00,0.0060
1596.00,0.0061
1595.00,0.0061
1594.00,0.0061
1593.00,0.0062
1592.00,0.0061
1591.00,0.0061
1590.00,0.0061
1589.00,0.0061
1588.00,0.0061
1587.00,0.0062
1586.00,0.0062
1585.00,0.0062
1584.00,0.0062
1583.00,0.0062
1582.00,0.0062
1581.00,0.0062
1580.00,0.0062
1579.00,0.0063
1578.00,0.0065
1577.00,0.0066
1576.00,0.0065
1575.00,0.0064
1574.00,0.0063
1573.00,0.0062
1572.00,0.0062
1571.00,0.0062
1570.00,0.0062
1569.00,0.0062
1568.00,0.0062
1567.00,0.0062
1566.00,0.0062
1565.00,0.0061
1564.00,0.0060
1563.00,0.0060
1562.00,0.0060
1561.00,0.0060
1560.00,0.0060
1559.00,0.0063
1558.00,0.0061
1557.00,0.0060
1556.00,0.0060
1555.00,0.0060
1554.00,0.0060
1553.00,0.0060
1552.00,0.0059
1551.00,0.0058
1550.00,0.0057
1549.00,0.0055
1548.00,0.0054
1547.00,0.0054
1546.00,0.0054
1545.00,0.0053
1544.00,0.0052
1543.00,0.0051
1542.00,0.0050
1541.00,0.0050
1540.00,0.0049
1539.00,0.0048
1538.00,0.0047
1537.00,0.0047
1536.00,0.0047
1535.00,0.0047
1534.00,0.0047
1533.00,0.0047
1532.00,0.0047
1531.00,0.0047
1530.00,0.0048
1529.00,0.0048
1528.00,0.0047
1527.00,0.0047
1526.00,0.0046
1525.00,0.0046
1524.00,0.0045
1523.00,0.0045
1522.00,0.0045
1521.00,0.0045
1520.00,0.0045
1519.00,0.0046
1518.00,0.0046
1517.00,0.0045
1516.00,0.0044
1515.00,0.0043
1514.00,0.0043
1513.00,0.0043
1512.00,0.0043
1511.00,0.0042
1510.00,0.0042
1509.00,0.0042
1508.00,0.0043
1507.00,0.0045
1506.00,0.0045
1505.00,0.0044
1504.00,0.0043
1503.00,0.0043
1502.00,0.0042
1501.00,0.0041
1500.00,0.0041
1499.00,0.0042
1498.00,0.0043
1497.00,0.0044
1496.00,0.0044
1495.00,0.0043
1494.00,0.0042
1493.00,0.0041
1492.00,0.0040
1491.00,0.0040
1490.00,0.0040
1489.00,0.0040
1488.00,0.0040
1487.00,0.0040
1486.00,0.0040
1485.00,0.0039
1484.00,0.0039
1483.00,0.0039
1482.00,0.0039
1481.00,0.0039
1480.00,0.0039
1479.00,0.0039
1478.00,0.0039
1477.00,0.0039
1476.00,0.0039
1475.00,0.0039
1474.00,0.0039
1473.00,0.0040
1472.00,0.0041
1471.00,0.0041
1470.00,0.0042
1469.00,0.0043
1468.00,0.0043
1467.00,0.0043
1466.00,0.0042
1465.00,0.0042
1464.00,0.0041
1463.00,0.0040
1462.00,0.0039
1461.00,0.0038
1460.00,0.0037
1459.00,0.0037
1458.00,0.0038
1457.00,0.0039
1456.00,0.0039
1455.00,0.0039
1454.00,0.0039
1453.00,0.0039
1452.00,0.0040
1451.00,0.0041
1450.00,0.0042
1449.00,0.0043
1448.00,0.0044
1447.00,0.0045
1446.00,0.0046
1445.00,0.0046
1444.00,0.0046
1443.00,0.0045
1442.00,0.0045
1441.00,0.0045
1440.00,0.0046
1439.00,0.0047
1438.00,0.0047
1437.00,0.0048
1436.00,0.0048
1435.00,0.0048
1434.00,0.0047
1433.00,0.0047
1432.00,0.0047
1431.00,0.0046
1430.00,0.0046
1429.00,0.0045
1428.00,0.0045
1427.00,0.0046
1426.00,0.0046
1425.00,0.0046
1424.00,0.0046
1423.00,0.0046
1422.00,0.0047
1421.00,0.0047
1420.00,0.0048
1419.00,0.0049
1418.00,0.0049
1417.00,0.0049
1416.00,0.0049
1415.00,0.0049
1414.00,0.0048
1413.00,0.0047
1412.00,0.0046
1411.00,0.0045
1410.00,0.0045
1409.00,0.0045
1408.00,0.0045
1407.00,0.0045
1406.00,0.0045
1405.00,0.0044
1404.00,0.0043
1403.00,0.0042
1402.00,0.0041
1401.00,0.0040
1400.00,0.0040
1399.00,0.0039
1398.00,0.0038
1397.00,0.0039
1396.00,0.0039
1395.00,0.0039
1394.00,0.0038
1393.00,0.0038
1392.00,0.0038
1391.00,0.0038
1390.00,0.0038
1389.00,0.0037
1388.00,0.0037
1387.00,0.0037
1386.00,0.0036
1385.00,0.0036
1384.00,0.0036
1383.00,0.0036
1382.00,0.0036
1381.00,0.0037
1380.00,0.0037
1379.00,0.0037
1378.00,0.0038
1377.00,0.0038
1376.00,0.0039
1375.00,0.0039
1374.00,0.0040
1373.00,0.0040
1372.00,0.0041
1371.00,0.0041
1370.00,0.0041
1369.00,0.0041
1368.00,0.0041
1367.00,0.0041
1366.00,0.0041
1365.00,0.0041
1364.00,0.0041
1363.00,0.0041
1362.00,0.0041
1361.00,0.0042
1360.00,0.0042
1359.00,0.0043
1358.00,0.0043
1357.00,0.0043
1356.00,0.0044
1355.00,0.0044
1354.00,0.0044
1353.00,0.0044
1352.00,0.0044
1351.00,0.0043
1350.00,0.0042
1349.00,0.0041
1348.00,0.0041
1347.00,0.0042
1346.00,0.0042
1345.00,0.0042
1344.00,0.0041
1343.00,0.0041
1342.00,0.0041
1341.00,0.0041
1340.00,0.0041
1339.00,0.0042
1338.00,0.0042
1337.00,0.0042
1336.00,0.0042
1335.00,0.0042
1334.00,0.0042
1333.00,0.0041
1332.00,0.0041
1331.00,0.0041
1330.00,0.0041
1329.00,0.0041
1328.00,0.0041
1327.00,0.0041
1326.00,0.0040
1325.00,0.0040
1324.00,0.0040
1323.00,0.0041
1322.00,0.0042
1321.00,0.0043
1320.00,0.0043
1319.00,0.0043
1318.00,0.0041
1317.00,0.0040
1316.00,0.0038
1315.00,0.0038
1314.00,0.0038
1313.00,0.0039
1312.00,0.0041
1311.00,0.0042
1310.00,0.0042
1309.00,0.0042
1308.00,0.0042
1307.00,0.0041
1306.00,0.0041
1305.00,0.0041
1304.00,0.0041
1303.00,0.0042
1302.00,0.0042
1301.00,0.0042
1300.00,0.0042
1299.00,0.0042
1298.00,0.0041
1297.00,0.0041
1296.00,0.0040
1295.00,0.0041
1294.00,0.0041
1293.00,0.0042
1292.00,0.0042
1291.00,0.0042
1290.00,0.0042
1289.00,0.0042
1288.00,0.0042
1287.00,0.0042
1286.00,0.0041
1285.00,0.0041
1284.00,0.0042
1283.00,0.0042
1282.00,0.0042
1281.00,0.0042
1280.00,0.0041
1279.00,0.0040
1278.00,0.0039
1277.00,0.0038
1276.00,0.0038
1275.00,0.0038
1274.00,0.0039
1273.00,0.0038
1272.00,0.0038
1271.00,0.0038
1270.00,0.0037
1269.00,0.0037
1268.00,0.0037
1267.00,0.0037
1266.00,0.0037
1265.00,0.0038
1264.00,0.0037
1263.00,0.0036
1262.00,0.0035
1261.00,0.0035
1260.00,0.0035
1259.00,0.0036
1258.00,0.0036
1257.00,0.0035
1256.00,0.0035
1255.00,0.0034
1254.00,0.0035
1253.00,0.0035
1252.00,0.0036
1251.00,0.0036
1250.00,0.0035
1249.00,0.0035
1248.00,0.0035
1247.00,0.0036
1246.00,0.0037
1245.00,0.0038
1244.00,0.0039
1243.00,0.0038
1242.00,0.0038
1241.00,0.0037
1240.00,0.0036
1239.00,0.0036
1238.00,0.0037
1237.00,0.0038
1236.00,0.0038
1235.00,0.0038
1234.00,0.0038
1233.00,0.0038
1232.00,0.0038
1231.00,0.0038
1230.00,0.0038
1229.00,0.0039
1228.00,0.0039
1227.00,0.0039
1226.00,0.0039
1225.00,0.0039
1224.00,0.0038
1223.00,0.0038
1222.00,0.0039
1221.00,0.0040
1220.00,0.0041
1219.00,0.0041
1218.00,0.0041
1217.00,0.0041
1216.00,0.0041
1215.00,0.0041
1214.00,0.0040
1213.00,0.0040
1212.00,0.0041
1211.00,0.0042
1210.00,0.0043
1209.00,0.0043
1208.00,0.0043
1207.00,0.0043
1206.00,0.0042
1205.00,0.0042
1204.00,0.0042
1203.00,0.0042
1202.00,0.0042
1201.00,0.0042
1200.00,0.0043
1199.00,0.0043
1198.00,0.0043
1197.00,0.0042
1196.00,0.0041
1195.00,0.0041
1194.00,0.0041
1193.00,0.0041
1192.00,0.0041
1191.00,0.0041
1190.00,0.0041
1189.00,0.0040
1188.00,0.0039
1187.00,0.0039
1186.00,0.0040
1185.00,0.0040
1184.00,0.0040
1183.00,0.0040
1182.00,0.0039
1181.00,0.0037
1180.00,0.0036
1179.00,0.0035
1178.00,0.0035
1177.00,0.0035
1176.00,0.0035
1175.00,0.0035
1174.00,0.0036
1173.00,0.0036
1172.00,0.0035
1171.00,0.0034
1170.00,0.0033
1169.00,0.0033
1168.00,0.0033
1167.00,0.0033
1166.00,0.0033
1165.00,0.0033
1164.00,0.0034
1163.00,0.0034
1162.00,0.0033
1161.00,0.0033
1160.00,0.0032
1159.00,0.0032
1158.00,0.0031
1157.00,0.0031
1156.00,0.0031
1155.00,0.0033
1154.00,0.0033
1153.00,0.0033
1152.00,0.0032
1151.00,0.0030
1150.00,0.0029
1149.00,0.0029
1148.00,0.0029
1147.00,0.0029
1146.00,0.0029
1145.00,0.0030
1144.00,0.0031
1143.00,0.0032
1142.00,0.0033
1141.00,0.0033
1140.00,0.0033
1139.00,0.0032
1138.00,0.0032
1137.00,0.0033
1136.00,0.0034
1135.00,0.0035
1134.00,0.0036
1133.00,0.0036
1132.00,0.0037
1131.00,0.0037
1130.00,0.0037
1129.00,0.0038
1128.00,0.0038
1127.00,0.0038
1126.00,0.0036
1125.00,0.0035
1124.00,0.0035
1123.00,0.0037
1122.00,0.0040
1121.00,0.0043
1120.00,0.0045
1119.00,0.0046
1118.00,0.0046
1117.00,0.0046
1116.00,0.0046
1115.00,0.0047
1114.00,0.0047
1113.00,0.0046
1112.00,0.0045
1111.00,0.0045
1110.00,0.0045
1109.00,0.0045
1108.00,0.0045
1107.00,0.0045
1106.00,0.0044
1105.00,0.0044
1104.00,0.0044
1103.00,0.0045
1102.00,0.0047
1101.00,0.0048
1100.00,0.0048
1099.00,0.0048
1098.00,0.0048
1097.00,0.0048
1096.00,0.0047
1095.00,0.0046
1094.00,0.0045
1093.00,0.0045
1092.00,0.0046
1091.00,0.0047
1090.00,0.0046
1089.00,0.0045
1088.00,0.0043
1087.00,0.0043
1086.00,0.0044
1085.00,0.0046
1084.00,0.0047
1083.00,0.0047
1082.00,0.0048
1081.00,0.0048
1080.00,0.0049
1079.00,0.0051
1078.00,0.0053
1077.00,0.0054
1076.00,0.0054
1075.00,0.0052
1074.00,0.0050
1073.00,0.0049
1072.00,0.0049
1071.00,0.0048
1070.00,0.0047
1069.00,0.0045
1068.00,0.0043
1067.00,0.0044
1066.00,0.0046
1065.00,0.0048
1064.00,0.0051
1063.00,0.0053
1062.00,0.0053
1061.00,0.0052
1060.00,0.0051
1059.00,0.0050
1058.00,0.0051
1057.00,0.0053
1056.00,0.0054
1055.00,0.0055
1054.00,0.0056
1053.00,0.0057
1052.00,0.0058
1051.00,0.0058
1050.00,0.0059
1049.00,0.0061
1048.00,0.0062
1047.00,0.0063
1046.00,0.0063
1045.00,0.0064
1044.00,0.0065
1043.00,0.0066
1042.00,0.0065
1041.00,0.0063
1040.00,0.0063
1039.00,0.0064
1038.00,0.0065
1037.00,0.0066
1036.00,0.0066
1035.00,0.0066
1034.00,0.0065
1033.00,0.0064
1032.00,0.0064
1031.00,0.0064
1030.00,0.0064
1029.00,0.0064
1028.00,0.0064
1027.00,0.0064
1026.00,0.0065
1025.00,0.0065
1024.00,0.0065
1023.00,0.0065
1022.00,0.0064
1021.00,0.0062
1020.00,0.0061
1019.00,0.0061
1018.00,0.0061
1017.00,0.0062
1016.00,0.0063
1015.00,0.0064
1014.00,0.0065
1013.00,0.0065
1012.00,0.0065
1011.00,0.0064
1010.00,0.0064
1009.00,0.0064
1008.00,0.0064
1007.00,0.0064
1006.00,0.0064
1005.00,0.0064
1004.00,0.0066
1003.00,0.0067
1002.00,0.0067
1001.00,0.0067
1000.00,0.0065
999.00,0.0063
998.00,0.0061
997.00,0.0061
996.00,0.0062
995.00,0.0063
994.00,0.0062
993.00,0.0061
992.00,0.0059
991.00,0.0057
990.00,0.0057
989.00,0.0057
988.00,0.0058
987.00,0.0058
986.00,0.0059
985.00,0.0058
984.00,0.0057
983.00,0.0055
982.00,0.0053
981.00,0.0052
980.00,0.0052
979.00,0.0052
978.00,0.0051
977.00,0.0049
976.00,0.0047
975.00,0.0046
974.00,0.0045
973.00,0.0046
972.00,0.0046
971.00,0.0045
970.00,0.0043
969.00,0.0042
968.00,0.0040
967.00,0.0039
966.00,0.0038
965.00,0.0037
964.00,0.0037
963.00,0.0037
962.00,0.0038
961.00,0.0038
960.00,0.0037
959.00,0.0036
958.00,0.0035
957.00,0.0035
956.00,0.0035
955.00,0.0035
954.00,0.0034
953.00,0.0033
952.00,0.0034
951.00,0.0035
950.00,0.0036
949.00,0.0037
948.00,0.0036
947.00,0.0036
946.00,0.0035
945.00,0.0035
944.00,0.0034
943.00,0.0034
942.00,0.0034
941.00,0.0034
940.00,0.0035
939.00,0.0036
938.00,0.0037
937.00,0.0036
936.00,0.0035
935.00,0.0033
934.00,0.0033
933.00,0.0034
932.00,0.0038
931.00,0.0040
930.00,0.0043
929.00,0.0044
928.00,0.0045
927.00,0.0046
926.00,0.0046
925.00,0.0046
924.00,0.0045
923.00,0.0045
922.00,0.0046
921.00,0.0046
920.00,0.0046
919.00,0.0047
918.00,0.0048
917.00,0.0050
916.00,0.0052
915.00,0.0053
914.00,0.0053
913.00,0.0052
912.00,0.0050
911.00,0.0049
910.00,0.0048
909.00,0.0046
908.00,0.0044
907.00,0.0042
906.00,0.0042
905.00,0.0045
904.00,0.0049
903.00,0.0053
902.00,0.0055
901.00,0.0054
900.00,0.0051
899.00,0.0049
898.00,0.0048
897.00,0.0049
896.00,0.0050
895.00,0.0050
894.00,0.0049
893.00,0.0048
892.00,0.0046
891.00,0.0045
890.00,0.0045
889.00,0.0045
888.00,0.0046
887.00,0.0045
886.00,0.0043
885.00,0.0042
884.00,0.0042
883.00,0.0044
882.00,0.0046
881.00,0.0047
880.00,0.0046
879.00,0.0045
878.00,0.0043
877.00,0.0041
876.00,0.0040
875.00,0.0039
874.00,0.0039
873.00,0.0040
872.00,0.0039
871.00,0.0039
870.00,0.0040
869.00,0.0039
868.00,0.0038
867.00,0.0036
866.00,0.0035
865.00,0.0036
864.00,0.0038
863.00,0.0040
862.00,0.0041
861.00,0.0041
860.00,0.0040
859.00,0.0038
858.00,0.0036
857.00,0.0035
856.00,0.0034
855.00,0.0036
854.00,0.0038
853.00,0.0038
852.00,0.0037
851.00,0.0036
850.00,0.0038
849.00,0.0040
848.00,0.0042
847.00,0.0043
846.00,0.0044
845.00,0.0044
844.00,0.0045
843.00,0.0044
842.00,0.0043
841.00,0.0042
840.00,0.0039
839.00,0.0037
838.00,0.0035
837.00,0.0035
836.00,0.0036
835.00,0.0036
834.00,0.0036
833.00,0.0036
832.00,0.0035
831.00,0.0035
830.00,0.0035
829.00,0.0034
828.00,0.0034
827.00,0.0035
826.00,0.0036
825.00,0.0038
824.00,0.0040
823.00,0.0041
822.00,0.0041
821.00,0.0040
820.00,0.0040
819.00,0.0040
818.00,0.0040
817.00,0.0038
816.00,0.0035
815.00,0.0035
814.00,0.0036
813.00,0.0039
812.00,0.0041
811.00,0.0042
810.00,0.0041
809.00,0.0041
808.00,0.0040
807.00,0.0039
806.00,0.0037
805.00,0.0036
804.00,0.0035
803.00,0.0035
802.00,0.0036
801.00,0.0039
800.00,0.0042
799.00,0.0045
798.00,0.0046
797.00,0.0045
796.00,0.0044
795.00,0.0043
794.00,0.0042
793.00,0.0041
792.00,0.0041
791.00,0.0042
790.00,0.0044
789.00,0.0046
788.00,0.0045
787.00,0.0044
786.00,0.0044
785.00,0.0046
784.00,0.0048
783.00,0.0050
782.00,0.0050
781.00,0.0049
780.00,0.0047
779.00,0.0046
778.00,0.0046
777.00,0.0048
776.00,0.0049
775.00,0.0048
774.00,0.0046
773.00,0.0043
772.00,0.0043
771.00,0.0043
770.00,0.0044
769.00,0.0044
768.00,0.0044
767.00,0.0042
766.00,0.0039
765.00,0.0037
764.00,0.0035
763.00,0.0033
762.00,0.0032
761.00,0.0032
760.00,0.0033
759.00,0.0036
758.00,0.0040
757.00,0.0042
756.00,0.0042
755.00,0.0040
754.00,0.0039
753.00,0.0038
752.00,0.0038
751.00,0.0039
750.00,0.0041
749.00,0.0042
748.00,0.0043
747.00,0.0042
746.00,0.0040
745.00,0.0038
744.00,0.0036
743.00,0.0035
742.00,0.0037
741.00,0.0037
740.00,0.0037
739.00,0.0034
738.00,0.0031
737.00,0.0030
736.00,0.0029
735.00,0.0028
734.00,0.0026
733.00,0.0025
732.00,0.0025
731.00,0.0025
730.00,0.0027
729.00,0.0030
728.00,0.0034
727.00,0.0038
726.00,0.0041
725.00,0.0041
724.00,0.0040
723.00,0.0037
722.00,0.0035
721.00,0.0035
720.00,0.0035
719.00,0.0036
718.00,0.0037
717.00,0.0037
716.00,0.0036
715.00,0.0033
714.00,0.0031
713.00,0.0030
712.00,0.0032
711.00,0.0034
710.00,0.0034
709.00,0.0033
708.00,0.0032
707.00,0.0032
706.00,0.0033
705.00,0.0035
704.00,0.0037
703.00,0.0039
702.00,0.0039
701.00,0.0037
700.00,0.0035
699.00,0.0035
698.00,0.0036
697.00,0.0037
696.00,0.0038
695.00,0.0039
694.00,0.0040
693.00,0.0041
692.00,0.0041
691.00,0.0041
690.00,0.0044
689.00,0.0047
688.00,0.0049
687.00,0.0048
686.00,0.0045
685.00,0.0040
684.00,0.0035
683.00,0.0030
682.00,0.0027
681.00,0.0028
680.00,0.0032
679.00,0.0036
678.00,0.0039
677.00,0.0041
676.00,0.0041
675.00,0.0040
674.00,0.0039
673.00,0.0039
672.00,0.0042
671.00,0.0046
670.00,0.0050
669.00,0.0052
668.00,0.0051
667.00,0.0048
666.00,0.0047
665.00,0.0048
664.00,0.0048
663.00,0.0046
662.00,0.0042
661.00,0.0036
660.00,0.0029
659.00,0.0025
658.00,0.0026
657.00,0.0035
656.00,0.0032
655.00,0.0028
654.00,0.0025
653.00,0.0015
652.00,0.0009
651.00,0.0008
650.00,0.0013
