Created as New Dataset,Monday, April 03 2023
cm-1,A
4000.00,0.0039
3999.00,0.0039
3998.00,0.0039
3997.00,0.0039
3996.00,0.0039
3995.00,0.0039
3994.00,0.0039
3993.00,0.0039
3992.00,0.0039
3991.00,0.0039
3990.00,0.0039
3989.00,0.0038
3988.00,0.0038
3987.00,0.0038
3986.00,0.0038
3985.00,0.0038
3984.00,0.0038
3983.00,0.0038
3982.00,0.0038
3981.00,0.0038
3980.00,0.0038
3979.00,0.0038
3978.00,0.0038
3977.00,0.0038
3976.00,0.0037
3975.00,0.0037
3974.00,0.0037
3973.00,0.0037
3972.00,0.0038
3971.00,0.0038
3970.00,0.0039
3969.00,0.0039
3968.00,0.0038
3967.00,0.0038
3966.00,0.0037
3965.00,0.0037
3964.00,0.0037
3963.00,0.0038
3962.00,0.0039
3961.00,0.0039
3960.00,0.0038
3959.00,0.0038
3958.00,0.0037
3957.00,0.0037
3956.00,0.0037
3955.00,0.0037
3954.00,0.0036
3953.00,0.0036
3952.00,0.0037
3951.00,0.0038
3950.00,0.0039
3949.00,0.0040
3948.00,0.0040
3947.00,0.0040
3946.00,0.0040
3945.00,0.0040
3944.00,0.0039
3943.00,0.0038
3942.00,0.0037
3941.00,0.0037
3940.00,0.0037
3939.00,0.0037
3938.00,0.0037
3937.00,0.0037
3936.00,0.0037
3935.00,0.0037
3934.00,0.0037
3933.00,0.0037
3932.00,0.0037
3931.00,0.0037
3930.00,0.0038
3929.00,0.0038
3928.00,0.0038
3927.00,0.0038
3926.00,0.0038
3925.00,0.0038
3924.00,0.0038
3923.00,0.0039
3922.00,0.0039
3921.00,0.0039
3920.00,0.0039
3919.00,0.0039
3918.00,0.0039
3917.00,0.0039
3916.00,0.0039
3915.00,0.0038
3914.00,0.0037
3913.00,0.0037
3912.00,0.0036
3911.00,0.0036
3910.00,0.0036
3909.00,0.0036
3908.00,0.0037
3907.00,0.0038
3906.00,0.0038
3905.00,0.0039
3904.00,0.0040
3903.00,0.0041
3902.00,0.0042
3901.00,0.0043
3900.00,0.0042
3899.00,0.0041
3898.00,0.0039
3897.00,0.0038
3896.00,0.0037
3895.00,0.0037
3894.00,0.0037
3893.00,0.0037
3892.00,0.0036
3891.00,0.0036
3890.00,0.0036
3889.00,0.0037
3888.00,0.0037
3887.00,0.0036
3886.00,0.0035
3885.00,0.0035
3884.00,0.0036
3883.00,0.0037
3882.00,0.0037
3881.00,0.0036
3880.00,0.0035
3879.00,0.0035
3878.00,0.0037
3877.00,0.0038
3876.00,0.0038
3875.00,0.0037
3874.00,0.0036
3873.00,0.0037
3872.00,0.0038
3871.00,0.0038
3870.00,0.0037
3869.00,0.0037
3868.00,0.0038
3867.00,0.0038
3866.00,0.0038
3865.00,0.0037
3864.00,0.0038
3863.00,0.0039
3862.00,0.0039
3861.00,0.0038
3860.00,0.0037
3859.00,0.0036
3858.00,0.0036
3857.00,0.0037
3856.00,0.0037
3855.00,0.0035
3854.00,0.0034
3853.00,0.0035
3852.00,0.0036
3851.00,0.0037
3850.00,0.0036
3849.00,0.0035
3848.00,0.0034
3847.00,0.0034
3846.00,0.0034
3845.00,0.0034
3844.00,0.0034
3843.00,0.0034
3842.00,0.0035
3841.00,0.0036
3840.00,0.0037
3839.00,0.0038
3838.00,0.0038
3837.00,0.0037
3836.00,0.0037
3835.00,0.0037
3834.00,0.0037
3833.00,0.0037
3832.00,0.0036
3831.00,0.0036
3830.00,0.0036
3829.00,0.0036
3828.00,0.0035
3827.00,0.0034
3826.00,0.0033
3825.00,0.0035
3824.00,0.0037
3823.00,0.0038
3822.00,0.0037
3821.00,0.0036
3820.00,0.0036
3819.00,0.0037
3818.00,0.0037
3817.00,0.0036
3816.00,0.0035
3815.00,0.0035
3814.00,0.0035
3813.00,0.0035
3812.00,0.0034
3811.00,0.0033
3810.00,0.0033
3809.00,0.0033
3808.00,0.0032
3807.00,0.0032
3806.00,0.0033
3805.00,0.0035
3804.00,0.0037
3803.00,0.0038
3802.00,0.0037
3801.00,0.0036
3800.00,0.0036
3799.00,0.0037
3798.00,0.0036
3797.00,0.0035
3796.00,0.0034
3795.00,0.0034
3794.00,0.0034
3793.00,0.0034
3792.00,0.0034
3791.00,0.0033
3790.00,0.0033
3789.00,0.0033
3788.00,0.0034
3787.00,0.0034
3786.00,0.0035
3785.00,0.0035
3784.00,0.0035
3783.00,0.0036
3782.00,0.0036
3781.00,0.0035
3780.00,0.0034
3779.00,0.0034
3778.00,0.0034
3777.00,0.0034
3776.00,0.0034
3775.00,0.0033
3774.00,0.0033
3773.00,0.0033
3772.00,0.0033
3771.00,0.0033
3770.00,0.0033
3769.00,0.0033
3768.00,0.0033
3767.00,0.0034
3766.00,0.0034
3765.00,0.0033
3764.00,0.0034
3763.00,0.0035
3762.00,0.0035
3761.00,0.0035
3760.00,0.0035
3759.00,0.0034
3758.00,0.0034
3757.00,0.0033
3756.00,0.0033
3755.00,0.0033
3754.00,0.0033
3753.00,0.0033
3752.00,0.0033
3751.00,0.0034
3750.00,0.0034
3749.00,0.0035
3748.00,0.0037
3747.00,0.0040
3746.00,0.0041
3745.00,0.0038
3744.00,0.0035
3743.00,0.0034
3742.00,0.0035
3741.00,0.0035
3740.00,0.0036
3739.00,0.0037
3738.00,0.0039
3737.00,0.0039
3736.00,0.0039
3735.00,0.0039
3734.00,0.0039
3733.00,0.0038
3732.00,0.0036
3731.00,0.0035
3730.00,0.0034
3729.00,0.0035
3728.00,0.0035
3727.00,0.0034
3726.00,0.0034
3725.00,0.0035
3724.00,0.0034
3723.00,0.0034
3722.00,0.0034
3721.00,0.0035
3720.00,0.0035
3719.00,0.0035
3718.00,0.0034
3717.00,0.0033
3716.00,0.0033
3715.00,0.0034
3714.00,0.0034
3713.00,0.0035
3712.00,0.0037
3711.00,0.0037
3710.00,0.0037
3709.00,0.0036
3708.00,0.0036
3707.00,0.0036
3706.00,0.0037
3705.00,0.0038
3704.00,0.0038
3703.00,0.0038
3702.00,0.0037
3701.00,0.0037
3700.00,0.0037
3699.00,0.0038
3698.00,0.0037
3697.00,0.0037
3696.00,0.0036
3695.00,0.0035
3694.00,0.0035
3693.00,0.0035
3692.00,0.0036
3691.00,0.0038
3690.00,0.0040
3689.00,0.0041
3688.00,0.0040
3687.00,0.0039
3686.00,0.0038
3685.00,0.0038
3684.00,0.0037
3683.00,0.0036
3682.00,0.0035
3681.00,0.0035
3680.00,0.0034
3679.00,0.0034
3678.00,0.0034
3677.00,0.0035
3676.00,0.0034
3675.00,0.0034
3674.00,0.0035
3673.00,0.0037
3672.00,0.0038
3671.00,0.0038
3670.00,0.0039
3669.00,0.0040
3668.00,0.0040
3667.00,0.0039
3666.00,0.0038
3665.00,0.0038
3664.00,0.0037
3663.00,0.0037
3662.00,0.0038
3661.00,0.0039
3660.00,0.0040
3659.00,0.0042
3658.00,0.0043
3657.00,0.0043
3656.00,0.0043
3655.00,0.0044
3654.00,0.0046
3653.00,0.0047
3652.00,0.0048
3651.00,0.0047
3650.00,0.0048
3649.00,0.0050
3648.00,0.0051
3647.00,0.0051
3646.00,0.0050
3645.00,0.0050
3644.00,0.0050
3643.00,0.0049
3642.00,0.0049
3641.00,0.0049
3640.00,0.0050
3639.00,0.0050
3638.00,0.0051
3637.00,0.0052
3636.00,0.0052
3635.00,0.0053
3634.00,0.0053
3633.00,0.0055
3632.00,0.0056
3631.00,0.0058
3630.00,0.0059
3629.00,0.0060
3628.00,0.0061
3627.00,0.0061
3626.00,0.0060
3625.00,0.0059
3624.00,0.0058
3623.00,0.0058
3622.00,0.0059
3621.00,0.0061
3620.00,0.0062
3619.00,0.0064
3618.00,0.0064
3617.00,0.0065
3616.00,0.0065
3615.00,0.0066
3614.00,0.0065
3613.00,0.0065
3612.00,0.0066
3611.00,0.0067
3610.00,0.0068
3609.00,0.0068
3608.00,0.0069
3607.00,0.0069
3606.00,0.0068
3605.00,0.0067
3604.00,0.0066
3603.00,0.0066
3602.00,0.0067
3601.00,0.0069
3600.00,0.0070
3599.00,0.0070
3598.00,0.0069
3597.00,0.0069
3596.00,0.0069
3595.00,0.0069
3594.00,0.0069
3593.00,0.0069
3592.00,0.0070
3591.00,0.0070
3590.00,0.0071
3589.00,0.0072
3588.00,0.0073
3587.00,0.0074
3586.00,0.0075
3585.00,0.0075
3584.00,0.0074
3583.00,0.0073
3582.00,0.0073
3581.00,0.0072
3580.00,0.0072
3579.00,0.0072
3578.00,0.0073
3577.00,0.0073
3576.00,0.0074
3575.00,0.0074
3574.00,0.0074
3573.00,0.0075
3572.00,0.0075
3571.00,0.0076
3570.00,0.0076
3569.00,0.0077
3568.00,0.0078
3567.00,0.0080
3566.00,0.0081
3565.00,0.0081
3564.00,0.0080
3563.00,0.0079
3562.00,0.0078
3561.00,0.0078
3560.00,0.0079
3559.00,0.0079
3558.00,0.0079
3557.00,0.0080
3556.00,0.0081
3555.00,0.0081
3554.00,0.0082
3553.00,0.0082
3552.00,0.0083
3551.00,0.0084
3550.00,0.0085
3549.00,0.0085
3548.00,0.0086
3547.00,0.0086
3546.00,0.0087
3545.00,0.0088
3544.00,0.0088
3543.00,0.0087
3542.00,0.0087
3541.00,0.0086
3540.00,0.0085
3539.00,0.0084
3538.00,0.0084
3537.00,0.0083
3536.00,0.0084
3535.00,0.0085
3534.00,0.0086
3533.00,0.0087
3532.00,0.0087
3531.00,0.0088
3530.00,0.0087
3529.00,0.0087
3528.00,0.0087
3527.00,0.0087
3526.00,0.0088
3525.00,0.0090
3524.00,0.0091
3523.00,0.0092
3522.00,0.0092
3521.00,0.0091
3520.00,0.0090
3519.00,0.0088
3518.00,0.0087
3517.00,0.0087
3516.00,0.0087
3515.00,0.0087
3514.00,0.0088
3513.00,0.0090
3512.00,0.0091
3511.00,0.0092
3510.00,0.0092
3509.00,0.0092
3508.00,0.0092
3507.00,0.0091
3506.00,0.0092
3505.00,0.0092
3504.00,0.0093
3503.00,0.0094
3502.00,0.0095
3501.00,0.0095
3500.00,0.0095
3499.00,0.0095
3498.00,0.0095
3497.00,0.0096
3496.00,0.0096
3495.00,0.0095
3494.00,0.0095
3493.00,0.0094
3492.00,0.0094
3491.00,0.0094
3490.00,0.0094
3489.00,0.0094
3488.00,0.0094
3487.00,0.0095
3486.00,0.0095
3485.00,0.0095
3484.00,0.0095
3483.00,0.0096
3482.00,0.0096
3481.00,0.0096
3480.00,0.0096
3479.00,0.0096
3478.00,0.0096
3477.00,0.0097
3476.00,0.0097
3475.00,0.0098
3474.00,0.0098
3473.00,0.0098
3472.00,0.0099
3471.00,0.0099
3470.00,0.0099
3469.00,0.0100
3468.00,0.0100
3467.00,0.0100
3466.00,0.0101
3465.00,0.0101
3464.00,0.0101
3463.00,0.0101
3462.00,0.0099
3461.00,0.0099
3460.00,0.0099
3459.00,0.0100
3458.00,0.0101
3457.00,0.0101
3456.00,0.0101
3455.00,0.0100
3454.00,0.0100
3453.00,0.0100
3452.00,0.0101
3451.00,0.0101
3450.00,0.0102
3449.00,0.0102
3448.00,0.0103
3447.00,0.0103
3446.00,0.0103
3445.00,0.0104
3444.00,0.0104
3443.00,0.0104
3442.00,0.0103
3441.00,0.0102
3440.00,0.0101
3439.00,0.0101
3438.00,0.0101
3437.00,0.0101
3436.00,0.0101
3435.00,0.0101
3434.00,0.0101
3433.00,0.0101
3432.00,0.0102
3431.00,0.0103
3430.00,0.0103
3429.00,0.0103
3428.00,0.0102
3427.00,0.0102
3426.00,0.0103
3425.00,0.0104
3424.00,0.0105
3423.00,0.0106
3422.00,0.0106
3421.00,0.0106
3420.00,0.0106
3419.00,0.0106
3418.00,0.0106
3417.00,0.0106
3416.00,0.0105
3415.00,0.0104
3414.00,0.0104
3413.00,0.0104
3412.00,0.0105
3411.00,0.0105
3410.00,0.0106
3409.00,0.0106
3408.00,0.0107
3407.00,0.0107
3406.00,0.0107
3405.00,0.0107
3404.00,0.0106
3403.00,0.0106
3402.00,0.0106
3401.00,0.0106
3400.00,0.0107
3399.00,0.0107
3398.00,0.0107
3397.00,0.0107
3396.00,0.0106
3395.00,0.0106
3394.00,0.0106
3393.00,0.0106
3392.00,0.0107
3391.00,0.0108
3390.00,0.0108
3389.00,0.0108
3388.00,0.0108
3387.00,0.0108
3386.00,0.0107
3385.00,0.0107
3384.00,0.0108
3383.00,0.0108
3382.00,0.0108
3381.00,0.0109
3380.00,0.0109
3379.00,0.0110
3378.00,0.0110
3377.00,0.0109
3376.00,0.0109
3375.00,0.0109
3374.00,0.0108
3373.00,0.0108
3372.00,0.0108
3371.00,0.0107
3370.00,0.0107
3369.00,0.0108
3368.00,0.0109
3367.00,0.0109
3366.00,0.0109
3365.00,0.0108
3364.00,0.0108
3363.00,0.0108
3362.00,0.0109
3361.00,0.0110
3360.00,0.0111
3359.00,0.0111
3358.00,0.0110
3357.00,0.0110
3356.00,0.0110
3355.00,0.0110
3354.00,0.0110
3353.00,0.0111
3352.00,0.0111
3351.00,0.0111
3350.00,0.0111
3349.00,0.0111
3348.00,0.0111
3347.00,0.0111
3346.00,0.0110
3345.00,0.0110
3344.00,0.0110
3343.00,0.0109
3342.00,0.0109
3341.00,0.0110
3340.00,0.0110
3339.00,0.0111
3338.00,0.0111
3337.00,0.0111
3336.00,0.0110
3335.00,0.0110
3334.00,0.0110
3333.00,0.0110
3332.00,0.0110
3331.00,0.0109
3330.00,0.0109
3329.00,0.0108
3328.00,0.0109
3327.00,0.0109
3326.00,0.0110
3325.00,0.0111
3324.00,0.0112
3323.00,0.0112
3322.00,0.0111
3321.00,0.0111
3320.00,0.0110
3319.00,0.0110
3318.00,0.0110
3317.00,0.0110
3316.00,0.0110
3315.00,0.0110
3314.00,0.0110
3313.00,0.0110
3312.00,0.0109
3311.00,0.0109
3310.00,0.0110
3309.00,0.0111
3308.00,0.0111
3307.00,0.0112
3306.00,0.0112
3305.00,0.0111
3304.00,0.0111
3303.00,0.0111
3302.00,0.0111
3301.00,0.0111
3300.00,0.0110
3299.00,0.0110
3298.00,0.0110
3297.00,0.0111
3296.00,0.0111
3295.00,0.0112
3294.00,0.0112
3293.00,0.0112
3292.00,0.0111
3291.00,0.0111
3290.00,0.0111
3289.00,0.0111
3288.00,0.0111
3287.00,0.0111
3286.00,0.0111
3285.00,0.0112
3284.00,0.0112
3283.00,0.0112
3282.00,0.0112
3281.00,0.0112
3280.00,0.0111
3279.00,0.0111
3278.00,0.0111
3277.00,0.0111
3276.00,0.0111
3275.00,0.0111
3274.00,0.0112
3273.00,0.0112
3272.00,0.0112
3271.00,0.0112
3270.00,0.0113
3269.00,0.0113
3268.00,0.0113
3267.00,0.0113
3266.00,0.0112
3265.00,0.0112
3264.00,0.0111
3263.00,0.0111
3262.00,0.0111
3261.00,0.0111
3260.00,0.0111
3259.00,0.0112
3258.00,0.0112
3257.00,0.0111
3256.00,0.0111
3255.00,0.0110
3254.00,0.0111
3253.00,0.0111
3252.00,0.0111
3251.00,0.0112
3250.00,0.0112
3249.00,0.0111
3248.00,0.0111
3247.00,0.0111
3246.00,0.0111
3245.00,0.0111
3244.00,0.0112
3243.00,0.0111
3242.00,0.0111
3241.00,0.0111
3240.00,0.0111
3239.00,0.0111
3238.00,0.0112
3237.00,0.0112
3236.00,0.0113
3235.00,0.0114
3234.00,0.0114
3233.00,0.0114
3232.00,0.0113
3231.00,0.0113
3230.00,0.0112
3229.00,0.0112
3228.00,0.0111
3227.00,0.0111
3226.00,0.0111
3225.00,0.0111
3224.00,0.0111
3223.00,0.0112
3222.00,0.0112
3221.00,0.0112
3220.00,0.0111
3219.00,0.0111
3218.00,0.0111
3217.00,0.0111
3216.00,0.0112
3215.00,0.0113
3214.00,0.0113
3213.00,0.0112
3212.00,0.0112
3211.00,0.0111
3210.00,0.0111
3209.00,0.0111
3208.00,0.0111
3207.00,0.0111
3206.00,0.0111
3205.00,0.0112
3204.00,0.0112
3203.00,0.0113
3202.00,0.0113
3201.00,0.0112
3200.00,0.0112
3199.00,0.0113
3198.00,0.0113
3197.00,0.0113
3196.00,0.0112
3195.00,0.0112
3194.00,0.0112
3193.00,0.0111
3192.00,0.0111
3191.00,0.0111
3190.00,0.0110
3189.00,0.0109
3188.00,0.0109
3187.00,0.0109
3186.00,0.0109
3185.00,0.0109
3184.00,0.0110
3183.00,0.0111
3182.00,0.0111
3181.00,0.0111
3180.00,0.0111
3179.00,0.0110
3178.00,0.0110
3177.00,0.0109
3176.00,0.0108
3175.00,0.0108
3174.00,0.0109
3173.00,0.0109
3172.00,0.0109
3171.00,0.0109
3170.00,0.0109
3169.00,0.0109
3168.00,0.0109
3167.00,0.0109
3166.00,0.0110
3165.00,0.0111
3164.00,0.0111
3163.00,0.0112
3162.00,0.0111
3161.00,0.0110
3160.00,0.0109
3159.00,0.0108
3158.00,0.0107
3157.00,0.0107
3156.00,0.0107
3155.00,0.0108
3154.00,0.0109
3153.00,0.0110
3152.00,0.0110
3151.00,0.0109
3150.00,0.0109
3149.00,0.0108
3148.00,0.0108
3147.00,0.0108
3146.00,0.0108
3145.00,0.0108
3144.00,0.0108
3143.00,0.0108
3142.00,0.0108
3141.00,0.0108
3140.00,0.0108
3139.00,0.0108
3138.00,0.0108
3137.00,0.0108
3136.00,0.0108
3135.00,0.0108
3134.00,0.0108
3133.00,0.0108
3132.00,0.0108
3131.00,0.0108
3130.00,0.0108
3129.00,0.0108
3128.00,0.0108
3127.00,0.0107
3126.00,0.0107
3125.00,0.0107
3124.00,0.0107
3123.00,0.0107
3122.00,0.0107
3121.00,0.0107
3120.00,0.0107
3119.00,0.0107
3118.00,0.0107
3117.00,0.0107
3116.00,0.0107
3115.00,0.0107
3114.00,0.0107
3113.00,0.0107
3112.00,0.0107
3111.00,0.0107
3110.00,0.0106
3109.00,0.0106
3108.00,0.0106
3107.00,0.0106
3106.00,0.0107
3105.00,0.0107
3104.00,0.0107
3103.00,0.0107
3102.00,0.0106
3101.00,0.0106
3100.00,0.0105
3099.00,0.0105
3098.00,0.0105
3097.00,0.0105
3096.00,0.0106
3095.00,0.0107
3094.00,0.0107
3093.00,0.0108
3092.00,0.0107
3091.00,0.0107
3090.00,0.0106
3089.00,0.0105
3088.00,0.0104
3087.00,0.0104
3086.00,0.0104
3085.00,0.0105
3084.00,0.0106
3083.00,0.0106
3082.00,0.0106
3081.00,0.0106
3080.00,0.0106
3079.00,0.0106
3078.00,0.0106
3077.00,0.0105
3076.00,0.0105
3075.00,0.0105
3074.00,0.0105
3073.00,0.0105
3072.00,0.0106
3071.00,0.0106
3070.00,0.0106
3069.00,0.0106
3068.00,0.0106
3067.00,0.0106
3066.00,0.0106
3065.00,0.0105
3064.00,0.0104
3063.00,0.0103
3062.00,0.0103
3061.00,0.0104
3060.00,0.0104
3059.00,0.0104
3058.00,0.0104
3057.00,0.0104
3056.00,0.0104
3055.00,0.0104
3054.00,0.0103
3053.00,0.0103
3052.00,0.0103
3051.00,0.0104
3050.00,0.0104
3049.00,0.0105
3048.00,0.0105
3047.00,0.0105
3046.00,0.0105
3045.00,0.0104
3044.00,0.0104
3043.00,0.0103
3042.00,0.0102
3041.00,0.0101
3040.00,0.0101
3039.00,0.0101
3038.00,0.0102
3037.00,0.0102
3036.00,0.0102
3035.00,0.0103
3034.00,0.0103
3033.00,0.0103
3032.00,0.0103
3031.00,0.0102
3030.00,0.0102
3029.00,0.0101
3028.00,0.0100
3027.00,0.0100
3026.00,0.0100
3025.00,0.0101
3024.00,0.0101
3023.00,0.0101
3022.00,0.0101
3021.00,0.0101
3020.00,0.0101
3019.00,0.0100
3018.00,0.0100
3017.00,0.0099
3016.00,0.0100
3015.00,0.0100
3014.00,0.0099
3013.00,0.0099
3012.00,0.0098
3011.00,0.0098
3010.00,0.0098
3009.00,0.0097
3008.00,0.0095
3007.00,0.0094
3006.00,0.0093
3005.00,0.0092
3004.00,0.0091
3003.00,0.0090
3002.00,0.0089
3001.00,0.0087
3000.00,0.0086
2999.00,0.0084
2998.00,0.0083
2997.00,0.0082
2996.00,0.0081
2995.00,0.0081
2994.00,0.0080
2993.00,0.0080
2992.00,0.0079
2991.00,0.0079
2990.00,0.0078
2989.00,0.0078
2988.00,0.0077
2987.00,0.0076
2986.00,0.0074
2985.00,0.0071
2984.00,0.0067
2983.00,0.0065
2982.00,0.0064
2981.00,0.0065
2980.00,0.0067
2979.00,0.0069
2978.00,0.0072
2977.00,0.0075
2976.00,0.0078
2975.00,0.0079
2974.00,0.0080
2973.00,0.0080
2972.00,0.0081
2971.00,0.0083
2970.00,0.0086
2969.00,0.0089
2968.00,0.0093
2967.00,0.0096
2966.00,0.0099
2965.00,0.0101
2964.00,0.0104
2963.00,0.0107
2962.00,0.0109
2961.00,0.0112
2960.00,0.0113
2959.00,0.0114
2958.00,0.0116
2957.00,0.0117
2956.00,0.0119
2955.00,0.0120
2954.00,0.0121
2953.00,0.0122
2952.00,0.0123
2951.00,0.0123
2950.00,0.0124
2949.00,0.0125
2948.00,0.0126
2947.00,0.0127
2946.00,0.0129
2945.00,0.0131
2944.00,0.0133
2943.00,0.0137
2942.00,0.0140
2941.00,0.0144
2940.00,0.0148
2939.00,0.0151
2938.00,0.0155
2937.00,0.0159
2936.00,0.0164
2935.00,0.0169
2934.00,0.0175
2933.00,0.0179
2932.00,0.0184
2931.00,0.0189
2930.00,0.0194
2929.00,0.0198
2928.00,0.0202
2927.00,0.0206
2926.00,0.0208
2925.00,0.0209
2924.00,0.0210
2923.00,0.0209
2922.00,0.0207
2921.00,0.0204
2920.00,0.0199
2919.00,0.0194
2918.00,0.0189
2917.00,0.0183
2916.00,0.0178
2915.00,0.0173
2914.00,0.0168
2913.00,0.0163
2912.00,0.0159
2911.00,0.0155
2910.00,0.0152
2909.00,0.0149
2908.00,0.0146
2907.00,0.0143
2906.00,0.0140
2905.00,0.0138
2904.00,0.0136
2903.00,0.0133
2902.00,0.0131
2901.00,0.0130
2900.00,0.0128
2899.00,0.0126
2898.00,0.0124
2897.00,0.0123
2896.00,0.0121
2895.00,0.0120
2894.00,0.0118
2893.00,0.0117
2892.00,0.0115
2891.00,0.0114
2890.00,0.0112
2889.00,0.0111
2888.00,0.0110
2887.00,0.0109
2886.00,0.0108
2885.00,0.0107
2884.00,0.0106
2883.00,0.0105
2882.00,0.0105
2881.00,0.0105
2880.00,0.0106
2879.00,0.0107
2878.00,0.0108
2877.00,0.0109
2876.00,0.0110
2875.00,0.0111
2874.00,0.0112
2873.00,0.0112
2872.00,0.0113
2871.00,0.0113
2870.00,0.0114
2869.00,0.0115
2868.00,0.0116
2867.00,0.0117
2866.00,0.0118
2865.00,0.0121
2864.00,0.0124
2863.00,0.0127
2862.00,0.0130
2861.00,0.0134
2860.00,0.0139
2859.00,0.0144
2858.00,0.0149
2857.00,0.0154
2856.00,0.0157
2855.00,0.0158
2854.00,0.0159
2853.00,0.0158
2852.00,0.0156
2851.00,0.0153
2850.00,0.0149
2849.00,0.0144
2848.00,0.0139
2847.00,0.0133
2846.00,0.0128
2845.00,0.0123
2844.00,0.0118
2843.00,0.0114
2842.00,0.0111
2841.00,0.0108
2840.00,0.0105
2839.00,0.0102
2838.00,0.0100
2837.00,0.0099
2836.00,0.0098
2835.00,0.0098
2834.00,0.0097
2833.00,0.0096
2832.00,0.0095
2831.00,0.0093
2830.00,0.0092
2829.00,0.0091
2828.00,0.0091
2827.00,0.0091
2826.00,0.0091
2825.00,0.0090
2824.00,0.0090
2823.00,0.0089
2822.00,0.0089
2821.00,0.0088
2820.00,0.0087
2819.00,0.0086
2818.00,0.0086
2817.00,0.0085
2816.00,0.0085
2815.00,0.0085
2814.00,0.0084
2813.00,0.0084
2812.00,0.0084
2811.00,0.0083
2810.00,0.0083
2809.00,0.0083
2808.00,0.0083
2807.00,0.0083
2806.00,0.0083
2805.00,0.0083
2804.00,0.0083
2803.00,0.0082
2802.00,0.0082
2801.00,0.0082
2800.00,0.0082
2799.00,0.0082
2798.00,0.0082
2797.00,0.0081
2796.00,0.0081
2795.00,0.0081
2794.00,0.0081
2793.00,0.0081
2792.00,0.0081
2791.00,0.0081
2790.00,0.0081
2789.00,0.0081
2788.00,0.0080
2787.00,0.0080
2786.00,0.0079
2785.00,0.0079
2784.00,0.0079
2783.00,0.0078
2782.00,0.0078
2781.00,0.0077
2780.00,0.0076
2779.00,0.0076
2778.00,0.0076
2777.00,0.0077
2776.00,0.0077
2775.00,0.0077
2774.00,0.0077
2773.00,0.0077
2772.00,0.0077
2771.00,0.0076
2770.00,0.0075
2769.00,0.0075
2768.00,0.0074
2767.00,0.0074
2766.00,0.0075
2765.00,0.0075
2764.00,0.0075
2763.00,0.0075
2762.00,0.0075
2761.00,0.0075
2760.00,0.0075
2759.00,0.0075
2758.00,0.0075
2757.00,0.0074
2756.00,0.0074
2755.00,0.0074
2754.00,0.0074
2753.00,0.0074
2752.00,0.0074
2751.00,0.0074
2750.00,0.0074
2749.00,0.0074
2748.00,0.0074
2747.00,0.0074
2746.00,0.0074
2745.00,0.0074
2744.00,0.0074
2743.00,0.0074
2742.00,0.0074
2741.00,0.0074
2740.00,0.0074
2739.00,0.0073
2738.00,0.0073
2737.00,0.0072
2736.00,0.0072
2735.00,0.0072
2734.00,0.0073
2733.00,0.0073
2732.00,0.0073
2731.00,0.0073
2730.00,0.0073
2729.00,0.0072
2728.00,0.0072
2727.00,0.0072
2726.00,0.0072
2725.00,0.0072
2724.00,0.0072
2723.00,0.0072
2722.00,0.0071
2721.00,0.0071
2720.00,0.0071
2719.00,0.0071
2718.00,0.0071
2717.00,0.0072
2716.00,0.0072
2715.00,0.0072
2714.00,0.0072
2713.00,0.0071
2712.00,0.0071
2711.00,0.0071
2710.00,0.0071
2709.00,0.0071
2708.00,0.0070
2707.00,0.0070
2706.00,0.0070
2705.00,0.0070
2704.00,0.0070
2703.00,0.0070
2702.00,0.0069
2701.00,0.0069
2700.00,0.0070
2699.00,0.0070
2698.00,0.0070
2697.00,0.0069
2696.00,0.0069
2695.00,0.0069
2694.00,0.0070
2693.00,0.0070
2692.00,0.0070
2691.00,0.0070
2690.00,0.0070
2689.00,0.0069
2688.00,0.0069
2687.00,0.0069
2686.00,0.0069
2685.00,0.0069
2684.00,0.0069
2683.00,0.0069
2682.00,0.0069
2681.00,0.0069
2680.00,0.0068
2679.00,0.0068
2678.00,0.0067
2677.00,0.0067
2676.00,0.0067
2675.00,0.0067
2674.00,0.0067
2673.00,0.0067
2672.00,0.0067
2671.00,0.0067
2670.00,0.0067
2669.00,0.0066
2668.00,0.0066
2667.00,0.0067
2666.00,0.0067
2665.00,0.0067
2664.00,0.0067
2663.00,0.0068
2662.00,0.0068
2661.00,0.0068
2660.00,0.0068
2659.00,0.0068
2658.00,0.0068
2657.00,0.0068
2656.00,0.0068
2655.00,0.0068
2654.00,0.0068
2653.00,0.0068
2652.00,0.0068
2651.00,0.0068
2650.00,0.0068
2649.00,0.0068
2648.00,0.0068
2647.00,0.0067
2646.00,0.0067
2645.00,0.0067
2644.00,0.0067
2643.00,0.0068
2642.00,0.0068
2641.00,0.0068
2640.00,0.0068
2639.00,0.0068
2638.00,0.0067
2637.00,0.0067
2636.00,0.0067
2635.00,0.0067
2634.00,0.0067
2633.00,0.0067
2632.00,0.0067
2631.00,0.0067
2630.00,0.0067
2629.00,0.0066
2628.00,0.0065
2627.00,0.0065
2626.00,0.0066
2625.00,0.0066
2624.00,0.0067
2623.00,0.0067
2622.00,0.0068
2621.00,0.0068
2620.00,0.0068
2619.00,0.0068
2618.00,0.0068
2617.00,0.0067
2616.00,0.0067
2615.00,0.0066
2614.00,0.0066
2613.00,0.0066
2612.00,0.0067
2611.00,0.0067
2610.00,0.0067
2609.00,0.0066
2608.00,0.0065
2607.00,0.0065
2606.00,0.0066
2605.00,0.0067
2604.00,0.0067
2603.00,0.0067
2602.00,0.0067
2601.00,0.0067
2600.00,0.0067
2599.00,0.0066
2598.00,0.0066
2597.00,0.0065
2596.00,0.0065
2595.00,0.0064
2594.00,0.0064
2593.00,0.0065
2592.00,0.0066
2591.00,0.0066
2590.00,0.0066
2589.00,0.0066
2588.00,0.0066
2587.00,0.0065
2586.00,0.0065
2585.00,0.0064
2584.00,0.0063
2583.00,0.0063
2582.00,0.0064
2581.00,0.0064
2580.00,0.0065
2579.00,0.0065
2578.00,0.0065
2577.00,0.0065
2576.00,0.0064
2575.00,0.0063
2574.00,0.0063
2573.00,0.0064
2572.00,0.0064
2571.00,0.0064
2570.00,0.0063
2569.00,0.0063
2568.00,0.0063
2567.00,0.0064
2566.00,0.0065
2565.00,0.0065
2564.00,0.0065
2563.00,0.0065
2562.00,0.0065
2561.00,0.0065
2560.00,0.0065
2559.00,0.0065
2558.00,0.0065
2557.00,0.0065
2556.00,0.0065
2555.00,0.0065
2554.00,0.0065
2553.00,0.0064
2552.00,0.0063
2551.00,0.0062
2550.00,0.0061
2549.00,0.0060
2548.00,0.0060
2547.00,0.0059
2546.00,0.0059
2545.00,0.0060
2544.00,0.0061
2543.00,0.0061
2542.00,0.0060
2541.00,0.0059
2540.00,0.0058
2539.00,0.0058
2538.00,0.0057
2537.00,0.0057
2536.00,0.0058
2535.00,0.0058
2534.00,0.0059
2533.00,0.0060
2532.00,0.0061
2531.00,0.0060
2530.00,0.0060
2529.00,0.0059
2528.00,0.0059
2527.00,0.0058
2526.00,0.0058
2525.00,0.0057
2524.00,0.0057
2523.00,0.0057
2522.00,0.0058
2521.00,0.0058
2520.00,0.0058
2519.00,0.0059
2518.00,0.0060
2517.00,0.0061
2516.00,0.0061
2515.00,0.0061
2514.00,0.0060
2513.00,0.0059
2512.00,0.0058
2511.00,0.0059
2510.00,0.0059
2509.00,0.0060
2508.00,0.0060
2507.00,0.0060
2506.00,0.0060
2505.00,0.0059
2504.00,0.0059
2503.00,0.0058
2502.00,0.0059
2501.00,0.0059
2500.00,0.0060
2499.00,0.0060
2498.00,0.0060
2497.00,0.0060
2496.00,0.0060
2495.00,0.0060
2494.00,0.0060
2493.00,0.0061
2492.00,0.0061
2491.00,0.0060
2490.00,0.0060
2489.00,0.0060
2488.00,0.0060
2487.00,0.0060
2486.00,0.0059
2485.00,0.0058
2484.00,0.0057
2483.00,0.0057
2482.00,0.0058
2481.00,0.0058
2480.00,0.0059
2479.00,0.0059
2478.00,0.0058
2477.00,0.0058
2476.00,0.0057
2475.00,0.0057
2474.00,0.0057
2473.00,0.0058
2472.00,0.0058
2471.00,0.0058
2470.00,0.0058
2469.00,0.0057
2468.00,0.0057
2467.00,0.0057
2466.00,0.0056
2465.00,0.0056
2464.00,0.0056
2463.00,0.0056
2462.00,0.0056
2461.00,0.0056
2460.00,0.0056
2459.00,0.0057
2458.00,0.0057
2457.00,0.0058
2456.00,0.0058
2455.00,0.0058
2454.00,0.0058
2453.00,0.0059
2452.00,0.0059
2451.00,0.0059
2450.00,0.0058
2449.00,0.0058
2448.00,0.0057
2447.00,0.0057
2446.00,0.0056
2445.00,0.0056
2444.00,0.0055
2443.00,0.0055
2442.00,0.0055
2441.00,0.0055
2440.00,0.0055
2439.00,0.0055
2438.00,0.0055
2437.00,0.0055
2436.00,0.0055
2435.00,0.0055
2434.00,0.0054
2433.00,0.0054
2432.00,0.0054
2431.00,0.0054
2430.00,0.0055
2429.00,0.0055
2428.00,0.0055
2427.00,0.0055
2426.00,0.0055
2425.00,0.0054
2424.00,0.0054
2423.00,0.0054
2422.00,0.0054
2421.00,0.0054
2420.00,0.0054
2419.00,0.0054
2418.00,0.0054
2417.00,0.0053
2416.00,0.0053
2415.00,0.0053
2414.00,0.0053
2413.00,0.0053
2412.00,0.0053
2411.00,0.0053
2410.00,0.0054
2409.00,0.0054
2408.00,0.0053
2407.00,0.0053
2406.00,0.0053
2405.00,0.0053
2404.00,0.0052
2403.00,0.0052
2402.00,0.0052
2401.00,0.0051
2400.00,0.0051
2399.00,0.0051
2398.00,0.0051
2397.00,0.0051
2396.00,0.0051
2395.00,0.0050
2394.00,0.0050
2393.00,0.0050
2392.00,0.0050
2391.00,0.0050
2390.00,0.0050
2389.00,0.0050
2388.00,0.0050
2387.00,0.0050
2386.00,0.0050
2385.00,0.0049
2384.00,0.0049
2383.00,0.0048
2382.00,0.0048
2381.00,0.0049
2380.00,0.0051
2379.00,0.0051
2378.00,0.0052
2377.00,0.0051
2376.00,0.0050
2375.00,0.0049
2374.00,0.0049
2373.00,0.0049
2372.00,0.0049
2371.00,0.0048
2370.00,0.0046
2369.00,0.0044
2368.00,0.0042
2367.00,0.0042
2366.00,0.0046
2365.00,0.0049
2364.00,0.0051
2363.00,0.0050
2362.00,0.0049
2361.00,0.0048
2360.00,0.0049
2359.00,0.0050
2358.00,0.0050
2357.00,0.0049
2356.00,0.0048
2355.00,0.0047
2354.00,0.0046
2353.00,0.0046
2352.00,0.0046
2351.00,0.0046
2350.00,0.0046
2349.00,0.0047
2348.00,0.0047
2347.00,0.0047
2346.00,0.0046
2345.00,0.0045
2344.00,0.0046
2343.00,0.0048
2342.00,0.0049
2341.00,0.0050
2340.00,0.0051
2339.00,0.0049
2338.00,0.0047
2337.00,0.0045
2336.00,0.0045
2335.00,0.0046
2334.00,0.0048
2333.00,0.0049
2332.00,0.0048
2331.00,0.0047
2330.00,0.0046
2329.00,0.0045
2328.00,0.0045
2327.00,0.0047
2326.00,0.0048
2325.00,0.0049
2324.00,0.0048
2323.00,0.0047
2322.00,0.0047
2321.00,0.0047
2320.00,0.0046
2319.00,0.0045
2318.00,0.0045
2317.00,0.0045
2316.00,0.0046
2315.00,0.0046
2314.00,0.0046
2313.00,0.0046
2312.00,0.0046
2311.00,0.0047
2310.00,0.0048
2309.00,0.0049
2308.00,0.0050
2307.00,0.0049
2306.00,0.0049
2305.00,0.0048
2304.00,0.0047
2303.00,0.0046
2302.00,0.0045
2301.00,0.0045
2300.00,0.0046
2299.00,0.0047
2298.00,0.0047
2297.00,0.0047
2296.00,0.0047
2295.00,0.0047
2294.00,0.0048
2293.00,0.0050
2292.00,0.0051
2291.00,0.0052
2290.00,0.0052
2289.00,0.0051
2288.00,0.0051
2287.00,0.0051
2286.00,0.0052
2285.00,0.0053
2284.00,0.0055
2283.00,0.0055
2282.00,0.0055
2281.00,0.0055
2280.00,0.0054
2279.00,0.0054
2278.00,0.0054
2277.00,0.0053
2276.00,0.0053
2275.00,0.0052
2274.00,0.0050
2273.00,0.0049
2272.00,0.0049
2271.00,0.0049
2270.00,0.0049
2269.00,0.0050
2268.00,0.0050
2267.00,0.0050
2266.00,0.0050
2265.00,0.0050
2264.00,0.0051
2263.00,0.0052
2262.00,0.0052
2261.00,0.0052
2260.00,0.0052
2259.00,0.0052
2258.00,0.0050
2257.00,0.0047
2256.00,0.0046
2255.00,0.0045
2254.00,0.0046
2253.00,0.0047
2252.00,0.0047
2251.00,0.0047
2250.00,0.0047
2249.00,0.0047
2248.00,0.0047
2247.00,0.0047
2246.00,0.0049
2245.00,0.0050
2244.00,0.0050
2243.00,0.0050
2242.00,0.0050
2241.00,0.0049
2240.00,0.0048
2239.00,0.0047
2238.00,0.0047
2237.00,0.0047
2236.00,0.0046
2235.00,0.0047
2234.00,0.0048
2233.00,0.0049
2232.00,0.0048
2231.00,0.0047
2230.00,0.0045
2229.00,0.0045
2228.00,0.0045
2227.00,0.0046
2226.00,0.0046
2225.00,0.0046
2224.00,0.0046
2223.00,0.0045
2222.00,0.0044
2221.00,0.0043
2220.00,0.0044
2219.00,0.0044
2218.00,0.0045
2217.00,0.0045
2216.00,0.0046
2215.00,0.0047
2214.00,0.0048
2213.00,0.0049
2212.00,0.0048
2211.00,0.0046
2210.00,0.0045
2209.00,0.0046
2208.00,0.0047
2207.00,0.0047
2206.00,0.0047
2205.00,0.0047
2204.00,0.0046
2203.00,0.0046
2202.00,0.0046
2201.00,0.0045
2200.00,0.0045
2199.00,0.0044
2198.00,0.0044
2197.00,0.0045
2196.00,0.0045
2195.00,0.0044
2194.00,0.0043
2193.00,0.0043
2192.00,0.0042
2191.00,0.0041
2190.00,0.0039
2189.00,0.0038
2188.00,0.0040
2187.00,0.0044
2186.00,0.0047
2185.00,0.0049
2184.00,0.0047
2183.00,0.0043
2182.00,0.0041
2181.00,0.0040
2180.00,0.0041
2179.00,0.0043
2178.00,0.0045
2177.00,0.0046
2176.00,0.0047
2175.00,0.0046
2174.00,0.0045
2173.00,0.0044
2172.00,0.0044
2171.00,0.0046
2170.00,0.0048
2169.00,0.0050
2168.00,0.0051
2167.00,0.0051
2166.00,0.0052
2165.00,0.0054
2164.00,0.0056
2163.00,0.0058
2162.00,0.0057
2161.00,0.0053
2160.00,0.0046
2159.00,0.0039
2158.00,0.0034
2157.00,0.0032
2156.00,0.0033
2155.00,0.0035
2154.00,0.0037
2153.00,0.0040
2152.00,0.0040
2151.00,0.0038
2150.00,0.0035
2149.00,0.0033
2148.00,0.0034
2147.00,0.0036
2146.00,0.0039
2145.00,0.0041
2144.00,0.0042
2143.00,0.0043
2142.00,0.0044
2141.00,0.0045
2140.00,0.0044
2139.00,0.0043
2138.00,0.0040
2137.00,0.0038
2136.00,0.0037
2135.00,0.0036
2134.00,0.0036
2133.00,0.0036
2132.00,0.0037
2131.00,0.0038
2130.00,0.0039
2129.00,0.0040
2128.00,0.0042
2127.00,0.0042
2126.00,0.0042
2125.00,0.0041
2124.00,0.0040
2123.00,0.0040
2122.00,0.0039
2121.00,0.0039
2120.00,0.0039
2119.00,0.0039
2118.00,0.0039
2117.00,0.0039
2116.00,0.0039
2115.00,0.0037
2114.00,0.0036
2113.00,0.0035
2112.00,0.0036
2111.00,0.0038
2110.00,0.0041
2109.00,0.0042
2108.00,0.0044
2107.00,0.0044
2106.00,0.0045
2105.00,0.0044
2104.00,0.0044
2103.00,0.0043
2102.00,0.0043
2101.00,0.0042
2100.00,0.0041
2099.00,0.0039
2098.00,0.0037
2097.00,0.0036
2096.00,0.0036
2095.00,0.0038
2094.00,0.0039
2093.00,0.0039
2092.00,0.0039
2091.00,0.0039
2090.00,0.0038
2089.00,0.0038
2088.00,0.0038
2087.00,0.0038
2086.00,0.0039
2085.00,0.0041
2084.00,0.0043
2083.00,0.0043
2082.00,0.0043
2081.00,0.0042
2080.00,0.0042
2079.00,0.0042
2078.00,0.0042
2077.00,0.0042
2076.00,0.0042
2075.00,0.0042
2074.00,0.0042
2073.00,0.0042
2072.00,0.0043
2071.00,0.0043
2070.00,0.0043
2069.00,0.0042
2068.00,0.0039
2067.00,0.0037
2066.00,0.0037
2065.00,0.0038
2064.00,0.0040
2063.00,0.0041
2062.00,0.0042
2061.00,0.0042
2060.00,0.0041
2059.00,0.0039
2058.00,0.0039
2057.00,0.0040
2056.00,0.0040
2055.00,0.0041
2054.00,0.0043
2053.00,0.0045
2052.00,0.0046
2051.00,0.0046
2050.00,0.0043
2049.00,0.0040
2048.00,0.0039
2047.00,0.0039
2046.00,0.0041
2045.00,0.0043
2044.00,0.0046
2043.00,0.0047
2042.00,0.0047
2041.00,0.0045
2040.00,0.0043
2039.00,0.0041
2038.00,0.0042
2037.00,0.0044
2036.00,0.0046
2035.00,0.0046
2034.00,0.0044
2033.00,0.0043
2032.00,0.0044
2031.00,0.0047
2030.00,0.0048
2029.00,0.0047
2028.00,0.0044
2027.00,0.0042
2026.00,0.0040
2025.00,0.0039
2024.00,0.0036
2023.00,0.0033
2022.00,0.0032
2021.00,0.0031
2020.00,0.0031
2019.00,0.0030
2018.00,0.0029
2017.00,0.0029
2016.00,0.0030
2015.00,0.0033
2014.00,0.0035
2013.00,0.0036
2012.00,0.0035
2011.00,0.0035
2010.00,0.0035
2009.00,0.0036
2008.00,0.0036
2007.00,0.0035
2006.00,0.0034
2005.00,0.0033
2004.00,0.0033
2003.00,0.0035
2002.00,0.0039
2001.00,0.0042
2000.00,0.0042
1999.00,0.0041
1998.00,0.0039
1997.00,0.0039
1996.00,0.0041
1995.00,0.0044
1994.00,0.0046
1993.00,0.0046
1992.00,0.0045
1991.00,0.0042
1990.00,0.0038
1989.00,0.0036
1988.00,0.0036
1987.00,0.0036
1986.00,0.0038
1985.00,0.0039
1984.00,0.0039
1983.00,0.0040
1982.00,0.0040
1981.00,0.0039
1980.00,0.0036
1979.00,0.0033
1978.00,0.0029
1977.00,0.0027
1976.00,0.0028
1975.00,0.0031
1974.00,0.0035
1973.00,0.0036
1972.00,0.0035
1971.00,0.0032
1970.00,0.0031
1969.00,0.0033
1968.00,0.0034
1967.00,0.0033
1966.00,0.0032
1965.00,0.0030
1964.00,0.0030
1963.00,0.0031
1962.00,0.0032
1961.00,0.0032
1960.00,0.0033
1959.00,0.0034
1958.00,0.0034
1957.00,0.0033
1956.00,0.0032
1955.00,0.0031
1954.00,0.0032
1953.00,0.0033
1952.00,0.0033
1951.00,0.0032
1950.00,0.0030
1949.00,0.0029
1948.00,0.0029
1947.00,0.0030
1946.00,0.0031
1945.00,0.0030
1944.00,0.0029
1943.00,0.0026
1942.00,0.0025
1941.00,0.0025
1940.00,0.0025
1939.00,0.0024
1938.00,0.0024
1937.00,0.0024
1936.00,0.0025
1935.00,0.0024
1934.00,0.0024
1933.00,0.0023
1932.00,0.0024
1931.00,0.0026
1930.00,0.0028
1929.00,0.0030
1928.00,0.0032
1927.00,0.0032
1926.00,0.0032
1925.00,0.0031
1924.00,0.0031
1923.00,0.0030
1922.00,0.0030
1921.00,0.0030
1920.00,0.0029
1919.00,0.0027
1918.00,0.0026
1917.00,0.0025
1916.00,0.0026
1915.00,0.0027
1914.00,0.0028
1913.00,0.0028
1912.00,0.0028
1911.00,0.0028
1910.00,0.0027
1909.00,0.0026
1908.00,0.0025
1907.00,0.0024
1906.00,0.0025
1905.00,0.0025
1904.00,0.0026
1903.00,0.0027
1902.00,0.0026
1901.00,0.0026
1900.00,0.0026
1899.00,0.0026
1898.00,0.0027
1897.00,0.0026
1896.00,0.0025
1895.00,0.0024
1894.00,0.0024
1893.00,0.0024
1892.00,0.0025
1891.00,0.0026
1890.00,0.0026
1889.00,0.0025
1888.00,0.0025
1887.00,0.0024
1886.00,0.0024
1885.00,0.0024
1884.00,0.0024
1883.00,0.0025
1882.00,0.0024
1881.00,0.0024
1880.00,0.0024
1879.00,0.0024
1878.00,0.0023
1877.00,0.0022
1876.00,0.0022
1875.00,0.0023
1874.00,0.0024
1873.00,0.0025
1872.00,0.0026
1871.00,0.0026
1870.00,0.0026
1869.00,0.0025
1868.00,0.0024
1867.00,0.0023
1866.00,0.0023
1865.00,0.0023
1864.00,0.0022
1863.00,0.0021
1862.00,0.0021
1861.00,0.0020
1860.00,0.0020
1859.00,0.0020
1858.00,0.0020
1857.00,0.0021
1856.00,0.0021
1855.00,0.0022
1854.00,0.0022
1853.00,0.0021
1852.00,0.0021
1851.00,0.0021
1850.00,0.0022
1849.00,0.0022
1848.00,0.0022
1847.00,0.0022
1846.00,0.0023
1845.00,0.0021
1844.00,0.0020
1843.00,0.0019
1842.00,0.0019
1841.00,0.0019
1840.00,0.0020
1839.00,0.0020
1838.00,0.0020
1837.00,0.0020
1836.00,0.0020
1835.00,0.0020
1834.00,0.0021
1833.00,0.0021
1832.00,0.0022
1831.00,0.0023
1830.00,0.0022
1829.00,0.0021
1828.00,0.0021
1827.00,0.0021
1826.00,0.0021
1825.00,0.0020
1824.00,0.0020
1823.00,0.0019
1822.00,0.0020
1821.00,0.0020
1820.00,0.0019
1819.00,0.0018
1818.00,0.0018
1817.00,0.0017
1816.00,0.0017
1815.00,0.0018
1814.00,0.0018
1813.00,0.0019
1812.00,0.0019
1811.00,0.0019
1810.00,0.0019
1809.00,0.0020
1808.00,0.0020
1807.00,0.0021
1806.00,0.0021
1805.00,0.0021
1804.00,0.0022
1803.00,0.0022
1802.00,0.0022
1801.00,0.0022
1800.00,0.0021
1799.00,0.0022
1798.00,0.0022
1797.00,0.0023
1796.00,0.0024
1795.00,0.0025
1794.00,0.0024
1793.00,0.0024
1792.00,0.0024
1791.00,0.0024
1790.00,0.0024
1789.00,0.0025
1788.00,0.0025
1787.00,0.0026
1786.00,0.0027
1785.00,0.0027
1784.00,0.0028
1783.00,0.0029
1782.00,0.0029
1781.00,0.0030
1780.00,0.0029
1779.00,0.0030
1778.00,0.0031
1777.00,0.0032
1776.00,0.0034
1775.00,0.0035
1774.00,0.0036
1773.00,0.0035
1772.00,0.0034
1771.00,0.0034
1770.00,0.0035
1769.00,0.0036
1768.00,0.0037
1767.00,0.0038
1766.00,0.0040
1765.00,0.0041
1764.00,0.0043
1763.00,0.0044
1762.00,0.0044
1761.00,0.0045
1760.00,0.0047
1759.00,0.0049
1758.00,0.0051
1757.00,0.0053
1756.00,0.0057
1755.00,0.0060
1754.00,0.0064
1753.00,0.0067
1752.00,0.0069
1751.00,0.0071
1750.00,0.0074
1749.00,0.0077
1748.00,0.0081
1747.00,0.0083
1746.00,0.0084
1745.00,0.0086
1744.00,0.0087
1743.00,0.0087
1742.00,0.0088
1741.00,0.0087
1740.00,0.0086
1739.00,0.0085
1738.00,0.0085
1737.00,0.0085
1736.00,0.0084
1735.00,0.0082
1734.00,0.0079
1733.00,0.0078
1732.00,0.0078
1731.00,0.0079
1730.00,0.0079
1729.00,0.0080
1728.00,0.0080
1727.00,0.0080
1726.00,0.0081
1725.00,0.0082
1724.00,0.0083
1723.00,0.0084
1722.00,0.0085
1721.00,0.0086
1720.00,0.0087
1719.00,0.0087
1718.00,0.0087
1717.00,0.0089
1716.00,0.0091
1715.00,0.0093
1714.00,0.0095
1713.00,0.0097
1712.00,0.0098
1711.00,0.0099
1710.00,0.0099
1709.00,0.0099
1708.00,0.0099
1707.00,0.0098
1706.00,0.0097
1705.00,0.0096
1704.00,0.0096
1703.00,0.0097
1702.00,0.0096
1701.00,0.0093
1700.00,0.0090
1699.00,0.0089
1698.00,0.0090
1697.00,0.0091
1696.00,0.0090
1695.00,0.0089
1694.00,0.0089
1693.00,0.0089
1692.00,0.0090
1691.00,0.0090
1690.00,0.0091
1689.00,0.0091
1688.00,0.0092
1687.00,0.0092
1686.00,0.0091
1685.00,0.0089
1684.00,0.0088
1683.00,0.0088
1682.00,0.0088
1681.00,0.0088
1680.00,0.0088
1679.00,0.0089
1678.00,0.0090
1677.00,0.0091
1676.00,0.0091
1675.00,0.0091
1674.00,0.0091
1673.00,0.0091
1672.00,0.0092
1671.00,0.0091
1670.00,0.0091
1669.00,0.0091
1668.00,0.0091
1667.00,0.0091
1666.00,0.0091
1665.00,0.0091
1664.00,0.0091
1663.00,0.0091
1662.00,0.0091
1661.00,0.0092
1660.00,0.0093
1659.00,0.0095
1658.00,0.0096
1657.00,0.0097
1656.00,0.0098
1655.00,0.0095
1654.00,0.0092
1653.00,0.0092
1652.00,0.0093
1651.00,0.0095
1650.00,0.0097
1649.00,0.0098
1648.00,0.0098
1647.00,0.0099
1646.00,0.0099
1645.00,0.0100
1644.00,0.0101
1643.00,0.0101
1642.00,0.0102
1641.00,0.0102
1640.00,0.0102
1639.00,0.0103
1638.00,0.0103
1637.00,0.0104
1636.00,0.0106
1635.00,0.0107
1634.00,0.0106
1633.00,0.0104
1632.00,0.0104
1631.00,0.0103
1630.00,0.0104
1629.00,0.0104
1628.00,0.0105
1627.00,0.0105
1626.00,0.0106
1625.00,0.0108
1624.00,0.0108
1623.00,0.0109
1622.00,0.0109
1621.00,0.0110
1620.00,0.0110
1619.00,0.0110
1618.00,0.0109
1617.00,0.0108
1616.00,0.0109
1615.00,0.0110
1614.00,0.0110
1613.00,0.0110
1612.00,0.0111
1611.00,0.0111
1610.00,0.0112
1609.00,0.0112
1608.00,0.0112
1607.00,0.0112
1606.00,0.0112
1605.00,0.0113
1604.00,0.0113
1603.00,0.0113
1602.00,0.0112
1601.00,0.0111
1600.00,0.0111
1599.00,0.0111
1598.00,0.0111
1597.00,0.0112
1596.00,0.0113
1595.00,0.0114
1594.00,0.0114
1593.00,0.0114
1592.00,0.0114
1591.00,0.0113
1590.00,0.0113
1589.00,0.0113
1588.00,0.0114
1587.00,0.0115
1586.00,0.0116
1585.00,0.0115
1584.00,0.0115
1583.00,0.0115
1582.00,0.0116
1581.00,0.0116
1580.00,0.0116
1579.00,0.0117
1578.00,0.0118
1577.00,0.0118
1576.00,0.0118
1575.00,0.0117
1574.00,0.0116
1573.00,0.0115
1572.00,0.0115
1571.00,0.0115
1570.00,0.0116
1569.00,0.0116
1568.00,0.0116
1567.00,0.0116
1566.00,0.0116
1565.00,0.0116
1564.00,0.0115
1563.00,0.0115
1562.00,0.0115
1561.00,0.0114
1560.00,0.0113
1559.00,0.0117
1558.00,0.0117
1557.00,0.0115
1556.00,0.0113
1555.00,0.0113
1554.00,0.0113
1553.00,0.0114
1552.00,0.0114
1551.00,0.0114
1550.00,0.0113
1549.00,0.0112
1548.00,0.0111
1547.00,0.0110
1546.00,0.0110
1545.00,0.0110
1544.00,0.0110
1543.00,0.0109
1542.00,0.0109
1541.00,0.0108
1540.00,0.0109
1539.00,0.0108
1538.00,0.0106
1537.00,0.0106
1536.00,0.0105
1535.00,0.0105
1534.00,0.0104
1533.00,0.0104
1532.00,0.0104
1531.00,0.0103
1530.00,0.0103
1529.00,0.0103
1528.00,0.0103
1527.00,0.0102
1526.00,0.0100
1525.00,0.0099
1524.00,0.0098
1523.00,0.0097
1522.00,0.0097
1521.00,0.0097
1520.00,0.0098
1519.00,0.0099
1518.00,0.0099
1517.00,0.0098
1516.00,0.0098
1515.00,0.0097
1514.00,0.0096
1513.00,0.0095
1512.00,0.0094
1511.00,0.0094
1510.00,0.0094
1509.00,0.0094
1508.00,0.0095
1507.00,0.0095
1506.00,0.0094
1505.00,0.0093
1504.00,0.0092
1503.00,0.0092
1502.00,0.0091
1501.00,0.0091
1500.00,0.0091
1499.00,0.0092
1498.00,0.0092
1497.00,0.0092
1496.00,0.0092
1495.00,0.0092
1494.00,0.0091
1493.00,0.0090
1492.00,0.0089
1491.00,0.0089
1490.00,0.0090
1489.00,0.0091
1488.00,0.0091
1487.00,0.0090
1486.00,0.0090
1485.00,0.0089
1484.00,0.0089
1483.00,0.0088
1482.00,0.0089
1481.00,0.0089
1480.00,0.0089
1479.00,0.0089
1478.00,0.0089
1477.00,0.0090
1476.00,0.0091
1475.00,0.0091
1474.00,0.0092
1473.00,0.0095
1472.00,0.0099
1471.00,0.0102
1470.00,0.0106
1469.00,0.0109
1468.00,0.0111
1467.00,0.0112
1466.00,0.0112
1465.00,0.0111
1464.00,0.0111
1463.00,0.0110
1462.00,0.0110
1461.00,0.0110
1460.00,0.0109
1459.00,0.0109
1458.00,0.0109
1457.00,0.0109
1456.00,0.0109
1455.00,0.0108
1454.00,0.0108
1453.00,0.0108
1452.00,0.0108
1451.00,0.0108
1450.00,0.0108
1449.00,0.0108
1448.00,0.0109
1447.00,0.0109
1446.00,0.0109
1445.00,0.0109
1444.00,0.0109
1443.00,0.0108
1442.00,0.0107
1441.00,0.0107
1440.00,0.0107
1439.00,0.0107
1438.00,0.0107
1437.00,0.0107
1436.00,0.0107
1435.00,0.0107
1434.00,0.0107
1433.00,0.0107
1432.00,0.0107
1431.00,0.0106
1430.00,0.0105
1429.00,0.0104
1428.00,0.0103
1427.00,0.0104
1426.00,0.0104
1425.00,0.0104
1424.00,0.0105
1423.00,0.0105
1422.00,0.0105
1421.00,0.0104
1420.00,0.0104
1419.00,0.0105
1418.00,0.0106
1417.00,0.0107
1416.00,0.0108
1415.00,0.0108
1414.00,0.0106
1413.00,0.0105
1412.00,0.0104
1411.00,0.0103
1410.00,0.0102
1409.00,0.0102
1408.00,0.0102
1407.00,0.0101
1406.00,0.0101
1405.00,0.0100
1404.00,0.0099
1403.00,0.0098
1402.00,0.0097
1401.00,0.0096
1400.00,0.0095
1399.00,0.0094
1398.00,0.0094
1397.00,0.0094
1396.00,0.0094
1395.00,0.0094
1394.00,0.0094
1393.00,0.0093
1392.00,0.0094
1391.00,0.0094
1390.00,0.0094
1389.00,0.0094
1388.00,0.0094
1387.00,0.0095
1386.00,0.0095
1385.00,0.0095
1384.00,0.0095
1383.00,0.0095
1382.00,0.0096
1381.00,0.0098
1380.00,0.0099
1379.00,0.0100
1378.00,0.0100
1377.00,0.0101
1376.00,0.0102
1375.00,0.0102
1374.00,0.0102
1373.00,0.0103
1372.00,0.0103
1371.00,0.0103
1370.00,0.0103
1369.00,0.0103
1368.00,0.0104
1367.00,0.0104
1366.00,0.0103
1365.00,0.0102
1364.00,0.0102
1363.00,0.0102
1362.00,0.0103
1361.00,0.0104
1360.00,0.0104
1359.00,0.0104
1358.00,0.0104
1357.00,0.0105
1356.00,0.0105
1355.00,0.0106
1354.00,0.0106
1353.00,0.0106
1352.00,0.0105
1351.00,0.0105
1350.00,0.0104
1349.00,0.0103
1348.00,0.0103
1347.00,0.0103
1346.00,0.0103
1345.00,0.0102
1344.00,0.0102
1343.00,0.0101
1342.00,0.0101
1341.00,0.0102
1340.00,0.0103
1339.00,0.0103
1338.00,0.0104
1337.00,0.0103
1336.00,0.0103
1335.00,0.0102
1334.00,0.0102
1333.00,0.0102
1332.00,0.0102
1331.00,0.0102
1330.00,0.0102
1329.00,0.0102
1328.00,0.0101
1327.00,0.0101
1326.00,0.0101
1325.00,0.0102
1324.00,0.0102
1323.00,0.0103
1322.00,0.0104
1321.00,0.0105
1320.00,0.0106
1319.00,0.0106
1318.00,0.0105
1317.00,0.0103
1316.00,0.0102
1315.00,0.0102
1314.00,0.0103
1313.00,0.0104
1312.00,0.0105
1311.00,0.0106
1310.00,0.0107
1309.00,0.0107
1308.00,0.0107
1307.00,0.0107
1306.00,0.0106
1305.00,0.0107
1304.00,0.0108
1303.00,0.0109
1302.00,0.0109
1301.00,0.0109
1300.00,0.0109
1299.00,0.0109
1298.00,0.0108
1297.00,0.0107
1296.00,0.0107
1295.00,0.0108
1294.00,0.0108
1293.00,0.0109
1292.00,0.0110
1291.00,0.0110
1290.00,0.0110
1289.00,0.0110
1288.00,0.0110
1287.00,0.0110
1286.00,0.0110
1285.00,0.0110
1284.00,0.0111
1283.00,0.0112
1282.00,0.0112
1281.00,0.0112
1280.00,0.0111
1279.00,0.0110
1278.00,0.0109
1277.00,0.0109
1276.00,0.0109
1275.00,0.0109
1274.00,0.0109
1273.00,0.0109
1272.00,0.0108
1271.00,0.0108
1270.00,0.0108
1269.00,0.0108
1268.00,0.0108
1267.00,0.0108
1266.00,0.0109
1265.00,0.0109
1264.00,0.0109
1263.00,0.0108
1262.00,0.0107
1261.00,0.0107
1260.00,0.0107
1259.00,0.0108
1258.00,0.0108
1257.00,0.0108
1256.00,0.0108
1255.00,0.0107
1254.00,0.0107
1253.00,0.0108
1252.00,0.0108
1251.00,0.0108
1250.00,0.0108
1249.00,0.0108
1248.00,0.0108
1247.00,0.0109
1246.00,0.0109
1245.00,0.0110
1244.00,0.0111
1243.00,0.0111
1242.00,0.0110
1241.00,0.0110
1240.00,0.0109
1239.00,0.0109
1238.00,0.0110
1237.00,0.0110
1236.00,0.0111
1235.00,0.0111
1234.00,0.0111
1233.00,0.0111
1232.00,0.0111
1231.00,0.0111
1230.00,0.0111
1229.00,0.0111
1228.00,0.0112
1227.00,0.0112
1226.00,0.0112
1225.00,0.0112
1224.00,0.0111
1223.00,0.0111
1222.00,0.0111
1221.00,0.0112
1220.00,0.0113
1219.00,0.0113
1218.00,0.0113
1217.00,0.0113
1216.00,0.0113
1215.00,0.0113
1214.00,0.0113
1213.00,0.0113
1212.00,0.0113
1211.00,0.0114
1210.00,0.0115
1209.00,0.0116
1208.00,0.0116
1207.00,0.0115
1206.00,0.0115
1205.00,0.0114
1204.00,0.0114
1203.00,0.0114
1202.00,0.0114
1201.00,0.0114
1200.00,0.0115
1199.00,0.0115
1198.00,0.0116
1197.00,0.0115
1196.00,0.0115
1195.00,0.0115
1194.00,0.0114
1193.00,0.0114
1192.00,0.0114
1191.00,0.0114
1190.00,0.0114
1189.00,0.0113
1188.00,0.0113
1187.00,0.0113
1186.00,0.0113
1185.00,0.0114
1184.00,0.0113
1183.00,0.0113
1182.00,0.0112
1181.00,0.0111
1180.00,0.0110
1179.00,0.0110
1178.00,0.0110
1177.00,0.0110
1176.00,0.0111
1175.00,0.0112
1174.00,0.0112
1173.00,0.0113
1172.00,0.0113
1171.00,0.0112
1170.00,0.0110
1169.00,0.0110
1168.00,0.0110
1167.00,0.0110
1166.00,0.0110
1165.00,0.0110
1164.00,0.0109
1163.00,0.0109
1162.00,0.0108
1161.00,0.0108
1160.00,0.0108
1159.00,0.0108
1158.00,0.0107
1157.00,0.0106
1156.00,0.0107
1155.00,0.0107
1154.00,0.0108
1153.00,0.0107
1152.00,0.0106
1151.00,0.0104
1150.00,0.0103
1149.00,0.0102
1148.00,0.0102
1147.00,0.0102
1146.00,0.0102
1145.00,0.0102
1144.00,0.0102
1143.00,0.0103
1142.00,0.0104
1141.00,0.0104
1140.00,0.0103
1139.00,0.0102
1138.00,0.0101
1137.00,0.0101
1136.00,0.0101
1135.00,0.0102
1134.00,0.0103
1133.00,0.0103
1132.00,0.0103
1131.00,0.0102
1130.00,0.0102
1129.00,0.0104
1128.00,0.0105
1127.00,0.0105
1126.00,0.0104
1125.00,0.0103
1124.00,0.0102
1123.00,0.0104
1122.00,0.0108
1121.00,0.0111
1120.00,0.0113
1119.00,0.0113
1118.00,0.0113
1117.00,0.0112
1116.00,0.0113
1115.00,0.0114
1114.00,0.0114
1113.00,0.0114
1112.00,0.0112
1111.00,0.0112
1110.00,0.0112
1109.00,0.0112
1108.00,0.0112
1107.00,0.0111
1106.00,0.0110
1105.00,0.0109
1104.00,0.0109
1103.00,0.0109
1102.00,0.0111
1101.00,0.0111
1100.00,0.0112
1099.00,0.0112
1098.00,0.0112
1097.00,0.0111
1096.00,0.0111
1095.00,0.0110
1094.00,0.0109
1093.00,0.0109
1092.00,0.0110
1091.00,0.0110
1090.00,0.0109
1089.00,0.0107
1088.00,0.0104
1087.00,0.0104
1086.00,0.0104
1085.00,0.0106
1084.00,0.0107
1083.00,0.0108
1082.00,0.0108
1081.00,0.0108
1080.00,0.0109
1079.00,0.0110
1078.00,0.0112
1077.00,0.0113
1076.00,0.0113
1075.00,0.0110
1074.00,0.0108
1073.00,0.0107
1072.00,0.0107
1071.00,0.0107
1070.00,0.0106
1069.00,0.0104
1068.00,0.0103
1067.00,0.0104
1066.00,0.0106
1065.00,0.0108
1064.00,0.0110
1063.00,0.0111
1062.00,0.0111
1061.00,0.0109
1060.00,0.0106
1059.00,0.0105
1058.00,0.0105
1057.00,0.0107
1056.00,0.0109
1055.00,0.0110
1054.00,0.0111
1053.00,0.0113
1052.00,0.0114
1051.00,0.0114
1050.00,0.0114
1049.00,0.0116
1048.00,0.0117
1047.00,0.0118
1046.00,0.0118
1045.00,0.0118
1044.00,0.0119
1043.00,0.0119
1042.00,0.0118
1041.00,0.0116
1040.00,0.0115
1039.00,0.0116
1038.00,0.0117
1037.00,0.0118
1036.00,0.0118
1035.00,0.0117
1034.00,0.0116
1033.00,0.0116
1032.00,0.0116
1031.00,0.0116
1030.00,0.0116
1029.00,0.0114
1028.00,0.0113
1027.00,0.0113
1026.00,0.0114
1025.00,0.0115
1024.00,0.0115
1023.00,0.0115
1022.00,0.0114
1021.00,0.0113
1020.00,0.0112
1019.00,0.0112
1018.00,0.0111
1017.00,0.0111
1016.00,0.0112
1015.00,0.0114
1014.00,0.0115
1013.00,0.0115
1012.00,0.0114
1011.00,0.0113
1010.00,0.0113
1009.00,0.0112
1008.00,0.0112
1007.00,0.0111
1006.00,0.0110
1005.00,0.0109
1004.00,0.0110
1003.00,0.0111
1002.00,0.0111
1001.00,0.0111
1000.00,0.0108
999.00,0.0106
998.00,0.0103
997.00,0.0103
996.00,0.0104
995.00,0.0105
994.00,0.0104
993.00,0.0103
992.00,0.0101
991.00,0.0099
990.00,0.0098
989.00,0.0098
988.00,0.0098
987.00,0.0099
986.00,0.0100
985.00,0.0101
984.00,0.0099
983.00,0.0097
982.00,0.0096
981.00,0.0095
980.00,0.0095
979.00,0.0094
978.00,0.0093
977.00,0.0091
976.00,0.0089
975.00,0.0088
974.00,0.0088
973.00,0.0088
972.00,0.0088
971.00,0.0088
970.00,0.0086
969.00,0.0084
968.00,0.0082
967.00,0.0081
966.00,0.0080
965.00,0.0080
964.00,0.0079
963.00,0.0079
962.00,0.0080
961.00,0.0080
960.00,0.0080
959.00,0.0079
958.00,0.0078
957.00,0.0078
956.00,0.0078
955.00,0.0078
954.00,0.0077
953.00,0.0077
952.00,0.0077
951.00,0.0078
950.00,0.0080
949.00,0.0081
948.00,0.0081
947.00,0.0079
946.00,0.0078
945.00,0.0077
944.00,0.0076
943.00,0.0076
942.00,0.0075
941.00,0.0075
940.00,0.0076
939.00,0.0078
938.00,0.0079
937.00,0.0078
936.00,0.0077
935.00,0.0076
934.00,0.0076
933.00,0.0078
932.00,0.0081
931.00,0.0083
930.00,0.0084
929.00,0.0085
928.00,0.0086
927.00,0.0087
926.00,0.0087
925.00,0.0087
924.00,0.0087
923.00,0.0087
922.00,0.0087
921.00,0.0086
920.00,0.0086
919.00,0.0086
918.00,0.0086
917.00,0.0086
916.00,0.0088
915.00,0.0089
914.00,0.0089
913.00,0.0088
912.00,0.0087
911.00,0.0086
910.00,0.0085
909.00,0.0083
908.00,0.0081
907.00,0.0079
906.00,0.0079
905.00,0.0082
904.00,0.0086
903.00,0.0090
902.00,0.0092
901.00,0.0091
900.00,0.0088
899.00,0.0087
898.00,0.0086
897.00,0.0087
896.00,0.0088
895.00,0.0088
894.00,0.0087
893.00,0.0085
892.00,0.0084
891.00,0.0084
890.00,0.0084
889.00,0.0085
888.00,0.0085
887.00,0.0084
886.00,0.0082
885.00,0.0081
884.00,0.0081
883.00,0.0084
882.00,0.0086
881.00,0.0087
880.00,0.0086
879.00,0.0085
878.00,0.0083
877.00,0.0081
876.00,0.0078
875.00,0.0077
874.00,0.0077
873.00,0.0077
872.00,0.0077
871.00,0.0077
870.00,0.0078
869.00,0.0078
868.00,0.0077
867.00,0.0076
866.00,0.0076
865.00,0.0077
864.00,0.0078
863.00,0.0080
862.00,0.0081
861.00,0.0081
860.00,0.0081
859.00,0.0080
858.00,0.0078
857.00,0.0076
856.00,0.0076
855.00,0.0077
854.00,0.0079
853.00,0.0080
852.00,0.0080
851.00,0.0079
850.00,0.0080
849.00,0.0081
848.00,0.0083
847.00,0.0084
846.00,0.0086
845.00,0.0087
844.00,0.0086
843.00,0.0085
842.00,0.0083
841.00,0.0081
840.00,0.0078
839.00,0.0076
838.00,0.0076
837.00,0.0076
836.00,0.0077
835.00,0.0078
834.00,0.0078
833.00,0.0077
832.00,0.0077
831.00,0.0076
830.00,0.0076
829.00,0.0075
828.00,0.0075
827.00,0.0076
826.00,0.0078
825.00,0.0080
824.00,0.0082
823.00,0.0084
822.00,0.0084
821.00,0.0084
820.00,0.0084
819.00,0.0084
818.00,0.0083
817.00,0.0081
816.00,0.0078
815.00,0.0077
814.00,0.0078
813.00,0.0081
812.00,0.0083
811.00,0.0083
810.00,0.0083
809.00,0.0083
808.00,0.0083
807.00,0.0081
806.00,0.0080
805.00,0.0078
804.00,0.0077
803.00,0.0077
802.00,0.0078
801.00,0.0080
800.00,0.0083
799.00,0.0085
798.00,0.0085
797.00,0.0084
796.00,0.0082
795.00,0.0081
794.00,0.0080
793.00,0.0080
792.00,0.0081
791.00,0.0084
790.00,0.0085
789.00,0.0086
788.00,0.0084
787.00,0.0084
786.00,0.0084
785.00,0.0086
784.00,0.0088
783.00,0.0089
782.00,0.0089
781.00,0.0087
780.00,0.0085
779.00,0.0083
778.00,0.0084
777.00,0.0085
776.00,0.0087
775.00,0.0086
774.00,0.0084
773.00,0.0082
772.00,0.0080
771.00,0.0081
770.00,0.0082
769.00,0.0083
768.00,0.0083
767.00,0.0082
766.00,0.0080
765.00,0.0079
764.00,0.0077
763.00,0.0077
762.00,0.0076
761.00,0.0075
760.00,0.0074
759.00,0.0075
758.00,0.0078
757.00,0.0080
756.00,0.0081
755.00,0.0080
754.00,0.0079
753.00,0.0078
752.00,0.0079
751.00,0.0081
750.00,0.0083
749.00,0.0084
748.00,0.0084
747.00,0.0085
746.00,0.0084
745.00,0.0082
744.00,0.0080
743.00,0.0078
742.00,0.0078
741.00,0.0078
740.00,0.0076
739.00,0.0073
738.00,0.0071
737.00,0.0070
736.00,0.0071
735.00,0.0071
734.00,0.0070
733.00,0.0069
732.00,0.0069
731.00,0.0070
730.00,0.0072
729.00,0.0074
728.00,0.0077
727.00,0.0081
726.00,0.0084
725.00,0.0086
724.00,0.0085
723.00,0.0083
722.00,0.0081
721.00,0.0079
720.00,0.0079
719.00,0.0078
718.00,0.0078
717.00,0.0077
716.00,0.0076
715.00,0.0074
714.00,0.0072
713.00,0.0071
712.00,0.0073
711.00,0.0074
710.00,0.0073
709.00,0.0071
708.00,0.0069
707.00,0.0069
706.00,0.0071
705.00,0.0074
704.00,0.0077
703.00,0.0079
702.00,0.0079
701.00,0.0076
700.00,0.0073
699.00,0.0072
698.00,0.0071
697.00,0.0071
696.00,0.0070
695.00,0.0070
694.00,0.0072
693.00,0.0075
692.00,0.0077
691.00,0.0078
690.00,0.0080
689.00,0.0081
688.00,0.0080
687.00,0.0078
686.00,0.0076
685.00,0.0074
684.00,0.0073
683.00,0.0070
682.00,0.0067
681.00,0.0065
680.00,0.0066
679.00,0.0068
678.00,0.0070
677.00,0.0071
676.00,0.0072
675.00,0.0072
674.00,0.0071
673.00,0.0071
672.00,0.0071
671.00,0.0073
670.00,0.0075
669.00,0.0076
668.00,0.0074
667.00,0.0072
666.00,0.0074
665.00,0.0077
664.00,0.0078
663.00,0.0075
662.00,0.0070
661.00,0.0063
660.00,0.0057
659.00,0.0054
658.00,0.0058
657.00,0.0065
656.00,0.0073
655.00,0.0076
654.00,0.0073
653.00,0.0067
652.00,0.0062
651.00,0.0058
650.00,0.0058
