Created as New Dataset,Monday, April 03 2023
cm-1,A
4000.00,0.0031
3999.00,0.0031
3998.00,0.0031
3997.00,0.0031
3996.00,0.0030
3995.00,0.0030
3994.00,0.0030
3993.00,0.0031
3992.00,0.0031
3991.00,0.0031
3990.00,0.0031
3989.00,0.0031
3988.00,0.0031
3987.00,0.0031
3986.00,0.0031
3985.00,0.0031
3984.00,0.0031
3983.00,0.0031
3982.00,0.0031
3981.00,0.0031
3980.00,0.0031
3979.00,0.0031
3978.00,0.0031
3977.00,0.0031
3976.00,0.0031
3975.00,0.0031
3974.00,0.0030
3973.00,0.0030
3972.00,0.0030
3971.00,0.0030
3970.00,0.0030
3969.00,0.0030
3968.00,0.0030
3967.00,0.0030
3966.00,0.0030
3965.00,0.0030
3964.00,0.0030
3963.00,0.0031
3962.00,0.0031
3961.00,0.0031
3960.00,0.0031
3959.00,0.0031
3958.00,0.0030
3957.00,0.0030
3956.00,0.0030
3955.00,0.0030
3954.00,0.0030
3953.00,0.0030
3952.00,0.0030
3951.00,0.0031
3950.00,0.0031
3949.00,0.0031
3948.00,0.0032
3947.00,0.0032
3946.00,0.0032
3945.00,0.0031
3944.00,0.0031
3943.00,0.0030
3942.00,0.0030
3941.00,0.0030
3940.00,0.0030
3939.00,0.0030
3938.00,0.0030
3937.00,0.0030
3936.00,0.0031
3935.00,0.0032
3934.00,0.0033
3933.00,0.0033
3932.00,0.0032
3931.00,0.0032
3930.00,0.0031
3929.00,0.0031
3928.00,0.0030
3927.00,0.0030
3926.00,0.0030
3925.00,0.0029
3924.00,0.0030
3923.00,0.0030
3922.00,0.0031
3921.00,0.0031
3920.00,0.0032
3919.00,0.0033
3918.00,0.0033
3917.00,0.0032
3916.00,0.0031
3915.00,0.0031
3914.00,0.0030
3913.00,0.0029
3912.00,0.0029
3911.00,0.0029
3910.00,0.0029
3909.00,0.0029
3908.00,0.0030
3907.00,0.0031
3906.00,0.0032
3905.00,0.0034
3904.00,0.0035
3903.00,0.0036
3902.00,0.0036
3901.00,0.0035
3900.00,0.0033
3899.00,0.0032
3898.00,0.0032
3897.00,0.0032
3896.00,0.0033
3895.00,0.0033
3894.00,0.0033
3893.00,0.0032
3892.00,0.0031
3891.00,0.0031
3890.00,0.0031
3889.00,0.0032
3888.00,0.0033
3887.00,0.0034
3886.00,0.0033
3885.00,0.0033
3884.00,0.0032
3883.00,0.0032
3882.00,0.0031
3881.00,0.0030
3880.00,0.0029
3879.00,0.0030
3878.00,0.0030
3877.00,0.0031
3876.00,0.0030
3875.00,0.0029
3874.00,0.0029
3873.00,0.0030
3872.00,0.0032
3871.00,0.0033
3870.00,0.0033
3869.00,0.0032
3868.00,0.0033
3867.00,0.0035
3866.00,0.0035
3865.00,0.0034
3864.00,0.0032
3863.00,0.0032
3862.00,0.0032
3861.00,0.0033
3860.00,0.0033
3859.00,0.0032
3858.00,0.0031
3857.00,0.0031
3856.00,0.0032
3855.00,0.0034
3854.00,0.0034
3853.00,0.0033
3852.00,0.0033
3851.00,0.0033
3850.00,0.0033
3849.00,0.0033
3848.00,0.0032
3847.00,0.0031
3846.00,0.0031
3845.00,0.0031
3844.00,0.0031
3843.00,0.0031
3842.00,0.0031
3841.00,0.0032
3840.00,0.0032
3839.00,0.0032
3838.00,0.0032
3837.00,0.0032
3836.00,0.0032
3835.00,0.0032
3834.00,0.0032
3833.00,0.0031
3832.00,0.0031
3831.00,0.0031
3830.00,0.0032
3829.00,0.0032
3828.00,0.0031
3827.00,0.0031
3826.00,0.0030
3825.00,0.0031
3824.00,0.0032
3823.00,0.0034
3822.00,0.0034
3821.00,0.0033
3820.00,0.0032
3819.00,0.0032
3818.00,0.0033
3817.00,0.0032
3816.00,0.0031
3815.00,0.0029
3814.00,0.0030
3813.00,0.0030
3812.00,0.0030
3811.00,0.0030
3810.00,0.0029
3809.00,0.0030
3808.00,0.0031
3807.00,0.0031
3806.00,0.0031
3805.00,0.0032
3804.00,0.0033
3803.00,0.0033
3802.00,0.0032
3801.00,0.0032
3800.00,0.0032
3799.00,0.0032
3798.00,0.0032
3797.00,0.0032
3796.00,0.0031
3795.00,0.0030
3794.00,0.0030
3793.00,0.0030
3792.00,0.0029
3791.00,0.0029
3790.00,0.0028
3789.00,0.0029
3788.00,0.0029
3787.00,0.0029
3786.00,0.0028
3785.00,0.0028
3784.00,0.0029
3783.00,0.0029
3782.00,0.0029
3781.00,0.0029
3780.00,0.0029
3779.00,0.0028
3778.00,0.0029
3777.00,0.0029
3776.00,0.0030
3775.00,0.0030
3774.00,0.0029
3773.00,0.0030
3772.00,0.0030
3771.00,0.0031
3770.00,0.0031
3769.00,0.0031
3768.00,0.0031
3767.00,0.0031
3766.00,0.0031
3765.00,0.0031
3764.00,0.0031
3763.00,0.0032
3762.00,0.0033
3761.00,0.0033
3760.00,0.0032
3759.00,0.0032
3758.00,0.0032
3757.00,0.0033
3756.00,0.0033
3755.00,0.0034
3754.00,0.0035
3753.00,0.0037
3752.00,0.0039
3751.00,0.0041
3750.00,0.0042
3749.00,0.0040
3748.00,0.0038
3747.00,0.0037
3746.00,0.0036
3745.00,0.0035
3744.00,0.0035
3743.00,0.0035
3742.00,0.0036
3741.00,0.0037
3740.00,0.0037
3739.00,0.0038
3738.00,0.0038
3737.00,0.0038
3736.00,0.0037
3735.00,0.0036
3734.00,0.0036
3733.00,0.0036
3732.00,0.0036
3731.00,0.0035
3730.00,0.0034
3729.00,0.0034
3728.00,0.0034
3727.00,0.0034
3726.00,0.0033
3725.00,0.0032
3724.00,0.0032
3723.00,0.0031
3722.00,0.0030
3721.00,0.0030
3720.00,0.0029
3719.00,0.0029
3718.00,0.0030
3717.00,0.0030
3716.00,0.0031
3715.00,0.0032
3714.00,0.0033
3713.00,0.0034
3712.00,0.0034
3711.00,0.0033
3710.00,0.0034
3709.00,0.0034
3708.00,0.0034
3707.00,0.0034
3706.00,0.0033
3705.00,0.0032
3704.00,0.0031
3703.00,0.0030
3702.00,0.0030
3701.00,0.0031
3700.00,0.0032
3699.00,0.0033
3698.00,0.0034
3697.00,0.0034
3696.00,0.0033
3695.00,0.0033
3694.00,0.0033
3693.00,0.0033
3692.00,0.0033
3691.00,0.0033
3690.00,0.0033
3689.00,0.0034
3688.00,0.0035
3687.00,0.0035
3686.00,0.0035
3685.00,0.0035
3684.00,0.0035
3683.00,0.0035
3682.00,0.0034
3681.00,0.0034
3680.00,0.0033
3679.00,0.0032
3678.00,0.0033
3677.00,0.0034
3676.00,0.0035
3675.00,0.0035
3674.00,0.0037
3673.00,0.0039
3672.00,0.0040
3671.00,0.0039
3670.00,0.0037
3669.00,0.0035
3668.00,0.0035
3667.00,0.0036
3666.00,0.0036
3665.00,0.0036
3664.00,0.0035
3663.00,0.0035
3662.00,0.0035
3661.00,0.0035
3660.00,0.0035
3659.00,0.0036
3658.00,0.0037
3657.00,0.0038
3656.00,0.0039
3655.00,0.0039
3654.00,0.0039
3653.00,0.0040
3652.00,0.0041
3651.00,0.0042
3650.00,0.0044
3649.00,0.0044
3648.00,0.0043
3647.00,0.0043
3646.00,0.0042
3645.00,0.0042
3644.00,0.0041
3643.00,0.0040
3642.00,0.0040
3641.00,0.0039
3640.00,0.0039
3639.00,0.0040
3638.00,0.0040
3637.00,0.0039
3636.00,0.0040
3635.00,0.0040
3634.00,0.0040
3633.00,0.0041
3632.00,0.0042
3631.00,0.0045
3630.00,0.0047
3629.00,0.0048
3628.00,0.0048
3627.00,0.0048
3626.00,0.0048
3625.00,0.0047
3624.00,0.0047
3623.00,0.0047
3622.00,0.0047
3621.00,0.0047
3620.00,0.0047
3619.00,0.0047
3618.00,0.0047
3617.00,0.0047
3616.00,0.0047
3615.00,0.0047
3614.00,0.0047
3613.00,0.0048
3612.00,0.0049
3611.00,0.0050
3610.00,0.0050
3609.00,0.0049
3608.00,0.0047
3607.00,0.0046
3606.00,0.0046
3605.00,0.0047
3604.00,0.0046
3603.00,0.0046
3602.00,0.0045
3601.00,0.0045
3600.00,0.0045
3599.00,0.0046
3598.00,0.0046
3597.00,0.0046
3596.00,0.0045
3595.00,0.0045
3594.00,0.0046
3593.00,0.0047
3592.00,0.0048
3591.00,0.0049
3590.00,0.0049
3589.00,0.0049
3588.00,0.0048
3587.00,0.0047
3586.00,0.0046
3585.00,0.0047
3584.00,0.0047
3583.00,0.0047
3582.00,0.0047
3581.00,0.0047
3580.00,0.0047
3579.00,0.0047
3578.00,0.0047
3577.00,0.0046
3576.00,0.0046
3575.00,0.0046
3574.00,0.0047
3573.00,0.0047
3572.00,0.0048
3571.00,0.0049
3570.00,0.0049
3569.00,0.0050
3568.00,0.0051
3567.00,0.0051
3566.00,0.0051
3565.00,0.0051
3564.00,0.0051
3563.00,0.0050
3562.00,0.0050
3561.00,0.0049
3560.00,0.0048
3559.00,0.0048
3558.00,0.0048
3557.00,0.0048
3556.00,0.0048
3555.00,0.0048
3554.00,0.0049
3553.00,0.0049
3552.00,0.0049
3551.00,0.0050
3550.00,0.0051
3549.00,0.0051
3548.00,0.0051
3547.00,0.0052
3546.00,0.0052
3545.00,0.0052
3544.00,0.0051
3543.00,0.0051
3542.00,0.0051
3541.00,0.0051
3540.00,0.0051
3539.00,0.0051
3538.00,0.0050
3537.00,0.0050
3536.00,0.0050
3535.00,0.0050
3534.00,0.0051
3533.00,0.0051
3532.00,0.0051
3531.00,0.0050
3530.00,0.0051
3529.00,0.0051
3528.00,0.0052
3527.00,0.0053
3526.00,0.0054
3525.00,0.0054
3524.00,0.0053
3523.00,0.0053
3522.00,0.0052
3521.00,0.0051
3520.00,0.0051
3519.00,0.0051
3518.00,0.0051
3517.00,0.0051
3516.00,0.0052
3515.00,0.0052
3514.00,0.0052
3513.00,0.0052
3512.00,0.0052
3511.00,0.0053
3510.00,0.0053
3509.00,0.0054
3508.00,0.0054
3507.00,0.0054
3506.00,0.0054
3505.00,0.0054
3504.00,0.0054
3503.00,0.0054
3502.00,0.0054
3501.00,0.0054
3500.00,0.0054
3499.00,0.0054
3498.00,0.0055
3497.00,0.0055
3496.00,0.0055
3495.00,0.0055
3494.00,0.0055
3493.00,0.0055
3492.00,0.0055
3491.00,0.0055
3490.00,0.0055
3489.00,0.0055
3488.00,0.0055
3487.00,0.0055
3486.00,0.0056
3485.00,0.0056
3484.00,0.0056
3483.00,0.0055
3482.00,0.0055
3481.00,0.0055
3480.00,0.0055
3479.00,0.0055
3478.00,0.0055
3477.00,0.0055
3476.00,0.0056
3475.00,0.0056
3474.00,0.0056
3473.00,0.0056
3472.00,0.0056
3471.00,0.0056
3470.00,0.0056
3469.00,0.0056
3468.00,0.0056
3467.00,0.0057
3466.00,0.0057
3465.00,0.0057
3464.00,0.0057
3463.00,0.0057
3462.00,0.0056
3461.00,0.0056
3460.00,0.0056
3459.00,0.0056
3458.00,0.0056
3457.00,0.0056
3456.00,0.0057
3455.00,0.0057
3454.00,0.0057
3453.00,0.0057
3452.00,0.0058
3451.00,0.0058
3450.00,0.0058
3449.00,0.0058
3448.00,0.0058
3447.00,0.0058
3446.00,0.0058
3445.00,0.0058
3444.00,0.0058
3443.00,0.0058
3442.00,0.0058
3441.00,0.0058
3440.00,0.0058
3439.00,0.0058
3438.00,0.0058
3437.00,0.0058
3436.00,0.0057
3435.00,0.0058
3434.00,0.0058
3433.00,0.0058
3432.00,0.0058
3431.00,0.0058
3430.00,0.0058
3429.00,0.0058
3428.00,0.0058
3427.00,0.0058
3426.00,0.0059
3425.00,0.0059
3424.00,0.0059
3423.00,0.0059
3422.00,0.0059
3421.00,0.0059
3420.00,0.0059
3419.00,0.0059
3418.00,0.0059
3417.00,0.0058
3416.00,0.0058
3415.00,0.0058
3414.00,0.0058
3413.00,0.0058
3412.00,0.0058
3411.00,0.0059
3410.00,0.0059
3409.00,0.0059
3408.00,0.0058
3407.00,0.0058
3406.00,0.0058
3405.00,0.0058
3404.00,0.0059
3403.00,0.0059
3402.00,0.0060
3401.00,0.0060
3400.00,0.0060
3399.00,0.0060
3398.00,0.0060
3397.00,0.0060
3396.00,0.0061
3395.00,0.0061
3394.00,0.0062
3393.00,0.0062
3392.00,0.0061
3391.00,0.0061
3390.00,0.0061
3389.00,0.0061
3388.00,0.0061
3387.00,0.0061
3386.00,0.0061
3385.00,0.0061
3384.00,0.0061
3383.00,0.0060
3382.00,0.0060
3381.00,0.0060
3380.00,0.0061
3379.00,0.0061
3378.00,0.0061
3377.00,0.0061
3376.00,0.0061
3375.00,0.0061
3374.00,0.0061
3373.00,0.0061
3372.00,0.0061
3371.00,0.0061
3370.00,0.0061
3369.00,0.0061
3368.00,0.0061
3367.00,0.0062
3366.00,0.0062
3365.00,0.0063
3364.00,0.0063
3363.00,0.0063
3362.00,0.0063
3361.00,0.0063
3360.00,0.0063
3359.00,0.0063
3358.00,0.0063
3357.00,0.0063
3356.00,0.0062
3355.00,0.0062
3354.00,0.0062
3353.00,0.0062
3352.00,0.0063
3351.00,0.0063
3350.00,0.0063
3349.00,0.0063
3348.00,0.0063
3347.00,0.0062
3346.00,0.0062
3345.00,0.0062
3344.00,0.0062
3343.00,0.0062
3342.00,0.0063
3341.00,0.0063
3340.00,0.0063
3339.00,0.0063
3338.00,0.0063
3337.00,0.0062
3336.00,0.0062
3335.00,0.0062
3334.00,0.0062
3333.00,0.0062
3332.00,0.0062
3331.00,0.0061
3330.00,0.0062
3329.00,0.0062
3328.00,0.0062
3327.00,0.0062
3326.00,0.0062
3325.00,0.0062
3324.00,0.0062
3323.00,0.0061
3322.00,0.0061
3321.00,0.0061
3320.00,0.0062
3319.00,0.0062
3318.00,0.0062
3317.00,0.0062
3316.00,0.0062
3315.00,0.0062
3314.00,0.0062
3313.00,0.0062
3312.00,0.0062
3311.00,0.0062
3310.00,0.0062
3309.00,0.0062
3308.00,0.0062
3307.00,0.0061
3306.00,0.0061
3305.00,0.0061
3304.00,0.0061
3303.00,0.0062
3302.00,0.0062
3301.00,0.0062
3300.00,0.0063
3299.00,0.0063
3298.00,0.0063
3297.00,0.0063
3296.00,0.0063
3295.00,0.0063
3294.00,0.0063
3293.00,0.0063
3292.00,0.0063
3291.00,0.0063
3290.00,0.0063
3289.00,0.0063
3288.00,0.0062
3287.00,0.0062
3286.00,0.0062
3285.00,0.0062
3284.00,0.0062
3283.00,0.0061
3282.00,0.0061
3281.00,0.0061
3280.00,0.0062
3279.00,0.0062
3278.00,0.0062
3277.00,0.0062
3276.00,0.0063
3275.00,0.0063
3274.00,0.0063
3273.00,0.0063
3272.00,0.0063
3271.00,0.0063
3270.00,0.0063
3269.00,0.0063
3268.00,0.0062
3267.00,0.0062
3266.00,0.0062
3265.00,0.0062
3264.00,0.0062
3263.00,0.0062
3262.00,0.0062
3261.00,0.0062
3260.00,0.0062
3259.00,0.0062
3258.00,0.0062
3257.00,0.0062
3256.00,0.0062
3255.00,0.0062
3254.00,0.0063
3253.00,0.0063
3252.00,0.0063
3251.00,0.0062
3250.00,0.0062
3249.00,0.0062
3248.00,0.0062
3247.00,0.0063
3246.00,0.0063
3245.00,0.0063
3244.00,0.0063
3243.00,0.0063
3242.00,0.0063
3241.00,0.0063
3240.00,0.0063
3239.00,0.0063
3238.00,0.0063
3237.00,0.0063
3236.00,0.0062
3235.00,0.0062
3234.00,0.0062
3233.00,0.0062
3232.00,0.0062
3231.00,0.0063
3230.00,0.0063
3229.00,0.0063
3228.00,0.0063
3227.00,0.0063
3226.00,0.0063
3225.00,0.0063
3224.00,0.0062
3223.00,0.0062
3222.00,0.0062
3221.00,0.0062
3220.00,0.0062
3219.00,0.0062
3218.00,0.0062
3217.00,0.0062
3216.00,0.0062
3215.00,0.0062
3214.00,0.0062
3213.00,0.0062
3212.00,0.0062
3211.00,0.0062
3210.00,0.0062
3209.00,0.0062
3208.00,0.0062
3207.00,0.0062
3206.00,0.0062
3205.00,0.0062
3204.00,0.0062
3203.00,0.0062
3202.00,0.0062
3201.00,0.0062
3200.00,0.0062
3199.00,0.0062
3198.00,0.0062
3197.00,0.0062
3196.00,0.0062
3195.00,0.0061
3194.00,0.0061
3193.00,0.0061
3192.00,0.0062
3191.00,0.0062
3190.00,0.0062
3189.00,0.0062
3188.00,0.0063
3187.00,0.0062
3186.00,0.0062
3185.00,0.0062
3184.00,0.0062
3183.00,0.0062
3182.00,0.0062
3181.00,0.0061
3180.00,0.0061
3179.00,0.0061
3178.00,0.0061
3177.00,0.0061
3176.00,0.0061
3175.00,0.0061
3174.00,0.0061
3173.00,0.0061
3172.00,0.0061
3171.00,0.0062
3170.00,0.0062
3169.00,0.0061
3168.00,0.0061
3167.00,0.0061
3166.00,0.0061
3165.00,0.0061
3164.00,0.0061
3163.00,0.0061
3162.00,0.0061
3161.00,0.0061
3160.00,0.0061
3159.00,0.0061
3158.00,0.0061
3157.00,0.0060
3156.00,0.0059
3155.00,0.0059
3154.00,0.0059
3153.00,0.0059
3152.00,0.0060
3151.00,0.0060
3150.00,0.0060
3149.00,0.0060
3148.00,0.0060
3147.00,0.0060
3146.00,0.0060
3145.00,0.0060
3144.00,0.0060
3143.00,0.0060
3142.00,0.0060
3141.00,0.0060
3140.00,0.0060
3139.00,0.0060
3138.00,0.0061
3137.00,0.0061
3136.00,0.0060
3135.00,0.0060
3134.00,0.0060
3133.00,0.0060
3132.00,0.0060
3131.00,0.0060
3130.00,0.0060
3129.00,0.0060
3128.00,0.0060
3127.00,0.0060
3126.00,0.0060
3125.00,0.0060
3124.00,0.0060
3123.00,0.0060
3122.00,0.0060
3121.00,0.0060
3120.00,0.0060
3119.00,0.0060
3118.00,0.0060
3117.00,0.0059
3116.00,0.0059
3115.00,0.0059
3114.00,0.0059
3113.00,0.0059
3112.00,0.0059
3111.00,0.0058
3110.00,0.0058
3109.00,0.0058
3108.00,0.0058
3107.00,0.0058
3106.00,0.0059
3105.00,0.0059
3104.00,0.0059
3103.00,0.0059
3102.00,0.0059
3101.00,0.0059
3100.00,0.0058
3099.00,0.0058
3098.00,0.0057
3097.00,0.0057
3096.00,0.0057
3095.00,0.0058
3094.00,0.0058
3093.00,0.0058
3092.00,0.0059
3091.00,0.0059
3090.00,0.0059
3089.00,0.0059
3088.00,0.0059
3087.00,0.0058
3086.00,0.0058
3085.00,0.0059
3084.00,0.0059
3083.00,0.0058
3082.00,0.0058
3081.00,0.0058
3080.00,0.0059
3079.00,0.0059
3078.00,0.0059
3077.00,0.0058
3076.00,0.0058
3075.00,0.0057
3074.00,0.0058
3073.00,0.0058
3072.00,0.0058
3071.00,0.0058
3070.00,0.0058
3069.00,0.0058
3068.00,0.0058
3067.00,0.0058
3066.00,0.0058
3065.00,0.0058
3064.00,0.0058
3063.00,0.0058
3062.00,0.0058
3061.00,0.0058
3060.00,0.0057
3059.00,0.0057
3058.00,0.0057
3057.00,0.0057
3056.00,0.0057
3055.00,0.0057
3054.00,0.0057
3053.00,0.0057
3052.00,0.0056
3051.00,0.0056
3050.00,0.0056
3049.00,0.0056
3048.00,0.0057
3047.00,0.0057
3046.00,0.0057
3045.00,0.0057
3044.00,0.0057
3043.00,0.0057
3042.00,0.0057
3041.00,0.0057
3040.00,0.0056
3039.00,0.0056
3038.00,0.0056
3037.00,0.0056
3036.00,0.0057
3035.00,0.0057
3034.00,0.0056
3033.00,0.0056
3032.00,0.0055
3031.00,0.0055
3030.00,0.0055
3029.00,0.0055
3028.00,0.0055
3027.00,0.0055
3026.00,0.0055
3025.00,0.0055
3024.00,0.0055
3023.00,0.0055
3022.00,0.0054
3021.00,0.0054
3020.00,0.0054
3019.00,0.0054
3018.00,0.0054
3017.00,0.0055
3016.00,0.0055
3015.00,0.0055
3014.00,0.0056
3013.00,0.0055
3012.00,0.0055
3011.00,0.0055
3010.00,0.0054
3009.00,0.0054
3008.00,0.0054
3007.00,0.0055
3006.00,0.0055
3005.00,0.0055
3004.00,0.0056
3003.00,0.0056
3002.00,0.0056
3001.00,0.0056
3000.00,0.0056
2999.00,0.0056
2998.00,0.0056
2997.00,0.0056
2996.00,0.0056
2995.00,0.0056
2994.00,0.0056
2993.00,0.0056
2992.00,0.0056
2991.00,0.0056
2990.00,0.0056
2989.00,0.0056
2988.00,0.0056
2987.00,0.0056
2986.00,0.0056
2985.00,0.0057
2984.00,0.0057
2983.00,0.0057
2982.00,0.0057
2981.00,0.0056
2980.00,0.0056
2979.00,0.0055
2978.00,0.0055
2977.00,0.0055
2976.00,0.0054
2975.00,0.0054
2974.00,0.0054
2973.00,0.0055
2972.00,0.0054
2971.00,0.0054
2970.00,0.0053
2969.00,0.0053
2968.00,0.0052
2967.00,0.0052
2966.00,0.0051
2965.00,0.0051
2964.00,0.0050
2963.00,0.0050
2962.00,0.0049
2961.00,0.0049
2960.00,0.0048
2959.00,0.0048
2958.00,0.0048
2957.00,0.0048
2956.00,0.0048
2955.00,0.0047
2954.00,0.0047
2953.00,0.0047
2952.00,0.0047
2951.00,0.0047
2950.00,0.0047
2949.00,0.0047
2948.00,0.0046
2947.00,0.0046
2946.00,0.0046
2945.00,0.0046
2944.00,0.0046
2943.00,0.0046
2942.00,0.0046
2941.00,0.0045
2940.00,0.0045
2939.00,0.0044
2938.00,0.0043
2937.00,0.0043
2936.00,0.0042
2935.00,0.0041
2934.00,0.0040
2933.00,0.0039
2932.00,0.0038
2931.00,0.0038
2930.00,0.0037
2929.00,0.0036
2928.00,0.0035
2927.00,0.0034
2926.00,0.0033
2925.00,0.0033
2924.00,0.0033
2923.00,0.0032
2922.00,0.0032
2921.00,0.0031
2920.00,0.0031
2919.00,0.0031
2918.00,0.0030
2917.00,0.0030
2916.00,0.0031
2915.00,0.0032
2914.00,0.0034
2913.00,0.0036
2912.00,0.0038
2911.00,0.0039
2910.00,0.0039
2909.00,0.0040
2908.00,0.0040
2907.00,0.0041
2906.00,0.0041
2905.00,0.0042
2904.00,0.0042
2903.00,0.0043
2902.00,0.0043
2901.00,0.0044
2900.00,0.0044
2899.00,0.0044
2898.00,0.0044
2897.00,0.0044
2896.00,0.0044
2895.00,0.0044
2894.00,0.0044
2893.00,0.0044
2892.00,0.0045
2891.00,0.0045
2890.00,0.0045
2889.00,0.0045
2888.00,0.0045
2887.00,0.0045
2886.00,0.0045
2885.00,0.0046
2884.00,0.0046
2883.00,0.0046
2882.00,0.0046
2881.00,0.0045
2880.00,0.0045
2879.00,0.0045
2878.00,0.0045
2877.00,0.0045
2876.00,0.0045
2875.00,0.0045
2874.00,0.0044
2873.00,0.0044
2872.00,0.0043
2871.00,0.0043
2870.00,0.0042
2869.00,0.0042
2868.00,0.0042
2867.00,0.0042
2866.00,0.0042
2865.00,0.0042
2864.00,0.0041
2863.00,0.0041
2862.00,0.0041
2861.00,0.0040
2860.00,0.0040
2859.00,0.0039
2858.00,0.0039
2857.00,0.0038
2856.00,0.0037
2855.00,0.0037
2854.00,0.0036
2853.00,0.0036
2852.00,0.0036
2851.00,0.0036
2850.00,0.0036
2849.00,0.0036
2848.00,0.0037
2847.00,0.0037
2846.00,0.0038
2845.00,0.0039
2844.00,0.0040
2843.00,0.0041
2842.00,0.0041
2841.00,0.0042
2840.00,0.0042
2839.00,0.0042
2838.00,0.0043
2837.00,0.0043
2836.00,0.0043
2835.00,0.0043
2834.00,0.0043
2833.00,0.0042
2832.00,0.0042
2831.00,0.0042
2830.00,0.0042
2829.00,0.0043
2828.00,0.0043
2827.00,0.0043
2826.00,0.0043
2825.00,0.0043
2824.00,0.0043
2823.00,0.0043
2822.00,0.0043
2821.00,0.0043
2820.00,0.0044
2819.00,0.0044
2818.00,0.0044
2817.00,0.0044
2816.00,0.0043
2815.00,0.0043
2814.00,0.0043
2813.00,0.0043
2812.00,0.0043
2811.00,0.0043
2810.00,0.0042
2809.00,0.0042
2808.00,0.0042
2807.00,0.0042
2806.00,0.0042
2805.00,0.0042
2804.00,0.0042
2803.00,0.0042
2802.00,0.0042
2801.00,0.0042
2800.00,0.0042
2799.00,0.0042
2798.00,0.0042
2797.00,0.0042
2796.00,0.0042
2795.00,0.0042
2794.00,0.0042
2793.00,0.0042
2792.00,0.0042
2791.00,0.0041
2790.00,0.0042
2789.00,0.0042
2788.00,0.0042
2787.00,0.0042
2786.00,0.0041
2785.00,0.0041
2784.00,0.0041
2783.00,0.0041
2782.00,0.0041
2781.00,0.0041
2780.00,0.0041
2779.00,0.0041
2778.00,0.0040
2777.00,0.0040
2776.00,0.0040
2775.00,0.0041
2774.00,0.0041
2773.00,0.0041
2772.00,0.0041
2771.00,0.0041
2770.00,0.0041
2769.00,0.0041
2768.00,0.0041
2767.00,0.0041
2766.00,0.0041
2765.00,0.0040
2764.00,0.0040
2763.00,0.0041
2762.00,0.0041
2761.00,0.0040
2760.00,0.0040
2759.00,0.0040
2758.00,0.0040
2757.00,0.0040
2756.00,0.0040
2755.00,0.0040
2754.00,0.0040
2753.00,0.0040
2752.00,0.0039
2751.00,0.0039
2750.00,0.0039
2749.00,0.0039
2748.00,0.0039
2747.00,0.0039
2746.00,0.0039
2745.00,0.0038
2744.00,0.0038
2743.00,0.0038
2742.00,0.0038
2741.00,0.0038
2740.00,0.0039
2739.00,0.0039
2738.00,0.0039
2737.00,0.0039
2736.00,0.0038
2735.00,0.0038
2734.00,0.0037
2733.00,0.0037
2732.00,0.0037
2731.00,0.0037
2730.00,0.0037
2729.00,0.0037
2728.00,0.0037
2727.00,0.0037
2726.00,0.0037
2725.00,0.0037
2724.00,0.0037
2723.00,0.0037
2722.00,0.0037
2721.00,0.0037
2720.00,0.0037
2719.00,0.0037
2718.00,0.0037
2717.00,0.0037
2716.00,0.0037
2715.00,0.0037
2714.00,0.0037
2713.00,0.0037
2712.00,0.0037
2711.00,0.0037
2710.00,0.0037
2709.00,0.0037
2708.00,0.0037
2707.00,0.0037
2706.00,0.0037
2705.00,0.0036
2704.00,0.0036
2703.00,0.0036
2702.00,0.0036
2701.00,0.0036
2700.00,0.0036
2699.00,0.0036
2698.00,0.0037
2697.00,0.0037
2696.00,0.0037
2695.00,0.0037
2694.00,0.0037
2693.00,0.0037
2692.00,0.0037
2691.00,0.0037
2690.00,0.0037
2689.00,0.0036
2688.00,0.0036
2687.00,0.0036
2686.00,0.0036
2685.00,0.0036
2684.00,0.0036
2683.00,0.0036
2682.00,0.0036
2681.00,0.0036
2680.00,0.0036
2679.00,0.0036
2678.00,0.0036
2677.00,0.0036
2676.00,0.0036
2675.00,0.0036
2674.00,0.0036
2673.00,0.0036
2672.00,0.0036
2671.00,0.0036
2670.00,0.0036
2669.00,0.0036
2668.00,0.0036
2667.00,0.0036
2666.00,0.0036
2665.00,0.0036
2664.00,0.0036
2663.00,0.0036
2662.00,0.0037
2661.00,0.0037
2660.00,0.0037
2659.00,0.0037
2658.00,0.0037
2657.00,0.0037
2656.00,0.0037
2655.00,0.0037
2654.00,0.0037
2653.00,0.0037
2652.00,0.0037
2651.00,0.0037
2650.00,0.0037
2649.00,0.0036
2648.00,0.0036
2647.00,0.0036
2646.00,0.0036
2645.00,0.0036
2644.00,0.0036
2643.00,0.0036
2642.00,0.0036
2641.00,0.0036
2640.00,0.0036
2639.00,0.0036
2638.00,0.0036
2637.00,0.0036
2636.00,0.0036
2635.00,0.0036
2634.00,0.0036
2633.00,0.0035
2632.00,0.0035
2631.00,0.0035
2630.00,0.0035
2629.00,0.0035
2628.00,0.0035
2627.00,0.0035
2626.00,0.0035
2625.00,0.0035
2624.00,0.0035
2623.00,0.0035
2622.00,0.0035
2621.00,0.0035
2620.00,0.0035
2619.00,0.0035
2618.00,0.0035
2617.00,0.0035
2616.00,0.0035
2615.00,0.0035
2614.00,0.0035
2613.00,0.0035
2612.00,0.0034
2611.00,0.0034
2610.00,0.0034
2609.00,0.0034
2608.00,0.0034
2607.00,0.0034
2606.00,0.0035
2605.00,0.0035
2604.00,0.0035
2603.00,0.0035
2602.00,0.0034
2601.00,0.0034
2600.00,0.0034
2599.00,0.0034
2598.00,0.0033
2597.00,0.0033
2596.00,0.0033
2595.00,0.0033
2594.00,0.0033
2593.00,0.0034
2592.00,0.0034
2591.00,0.0034
2590.00,0.0034
2589.00,0.0034
2588.00,0.0033
2587.00,0.0033
2586.00,0.0033
2585.00,0.0034
2584.00,0.0034
2583.00,0.0034
2582.00,0.0034
2581.00,0.0034
2580.00,0.0034
2579.00,0.0035
2578.00,0.0035
2577.00,0.0034
2576.00,0.0034
2575.00,0.0034
2574.00,0.0034
2573.00,0.0034
2572.00,0.0035
2571.00,0.0035
2570.00,0.0035
2569.00,0.0035
2568.00,0.0035
2567.00,0.0035
2566.00,0.0035
2565.00,0.0034
2564.00,0.0034
2563.00,0.0034
2562.00,0.0033
2561.00,0.0033
2560.00,0.0033
2559.00,0.0032
2558.00,0.0032
2557.00,0.0033
2556.00,0.0033
2555.00,0.0033
2554.00,0.0033
2553.00,0.0034
2552.00,0.0034
2551.00,0.0034
2550.00,0.0034
2549.00,0.0033
2548.00,0.0033
2547.00,0.0033
2546.00,0.0033
2545.00,0.0033
2544.00,0.0033
2543.00,0.0033
2542.00,0.0033
2541.00,0.0033
2540.00,0.0033
2539.00,0.0034
2538.00,0.0034
2537.00,0.0034
2536.00,0.0033
2535.00,0.0033
2534.00,0.0032
2533.00,0.0032
2532.00,0.0032
2531.00,0.0032
2530.00,0.0032
2529.00,0.0032
2528.00,0.0032
2527.00,0.0032
2526.00,0.0033
2525.00,0.0033
2524.00,0.0033
2523.00,0.0033
2522.00,0.0033
2521.00,0.0033
2520.00,0.0032
2519.00,0.0032
2518.00,0.0032
2517.00,0.0031
2516.00,0.0031
2515.00,0.0032
2514.00,0.0032
2513.00,0.0033
2512.00,0.0033
2511.00,0.0033
2510.00,0.0032
2509.00,0.0032
2508.00,0.0031
2507.00,0.0031
2506.00,0.0031
2505.00,0.0032
2504.00,0.0032
2503.00,0.0033
2502.00,0.0033
2501.00,0.0033
2500.00,0.0033
2499.00,0.0032
2498.00,0.0032
2497.00,0.0032
2496.00,0.0032
2495.00,0.0032
2494.00,0.0032
2493.00,0.0032
2492.00,0.0032
2491.00,0.0031
2490.00,0.0031
2489.00,0.0032
2488.00,0.0032
2487.00,0.0032
2486.00,0.0032
2485.00,0.0032
2484.00,0.0032
2483.00,0.0032
2482.00,0.0032
2481.00,0.0032
2480.00,0.0032
2479.00,0.0032
2478.00,0.0032
2477.00,0.0032
2476.00,0.0032
2475.00,0.0032
2474.00,0.0032
2473.00,0.0032
2472.00,0.0031
2471.00,0.0031
2470.00,0.0031
2469.00,0.0031
2468.00,0.0032
2467.00,0.0032
2466.00,0.0032
2465.00,0.0032
2464.00,0.0032
2463.00,0.0032
2462.00,0.0032
2461.00,0.0032
2460.00,0.0032
2459.00,0.0032
2458.00,0.0032
2457.00,0.0032
2456.00,0.0031
2455.00,0.0031
2454.00,0.0031
2453.00,0.0032
2452.00,0.0032
2451.00,0.0032
2450.00,0.0032
2449.00,0.0032
2448.00,0.0032
2447.00,0.0032
2446.00,0.0032
2445.00,0.0032
2444.00,0.0032
2443.00,0.0031
2442.00,0.0031
2441.00,0.0031
2440.00,0.0031
2439.00,0.0031
2438.00,0.0030
2437.00,0.0030
2436.00,0.0030
2435.00,0.0030
2434.00,0.0031
2433.00,0.0031
2432.00,0.0031
2431.00,0.0030
2430.00,0.0030
2429.00,0.0029
2428.00,0.0030
2427.00,0.0030
2426.00,0.0031
2425.00,0.0031
2424.00,0.0031
2423.00,0.0030
2422.00,0.0029
2421.00,0.0029
2420.00,0.0029
2419.00,0.0029
2418.00,0.0030
2417.00,0.0030
2416.00,0.0030
2415.00,0.0030
2414.00,0.0030
2413.00,0.0030
2412.00,0.0030
2411.00,0.0030
2410.00,0.0030
2409.00,0.0030
2408.00,0.0030
2407.00,0.0030
2406.00,0.0030
2405.00,0.0030
2404.00,0.0030
2403.00,0.0030
2402.00,0.0030
2401.00,0.0029
2400.00,0.0029
2399.00,0.0028
2398.00,0.0028
2397.00,0.0029
2396.00,0.0029
2395.00,0.0029
2394.00,0.0029
2393.00,0.0029
2392.00,0.0029
2391.00,0.0029
2390.00,0.0029
2389.00,0.0029
2388.00,0.0029
2387.00,0.0029
2386.00,0.0029
2385.00,0.0029
2384.00,0.0029
2383.00,0.0029
2382.00,0.0029
2381.00,0.0028
2380.00,0.0026
2379.00,0.0025
2378.00,0.0024
2377.00,0.0023
2376.00,0.0023
2375.00,0.0022
2374.00,0.0021
2373.00,0.0021
2372.00,0.0021
2371.00,0.0022
2370.00,0.0023
2369.00,0.0024
2368.00,0.0023
2367.00,0.0023
2366.00,0.0024
2365.00,0.0023
2364.00,0.0023
2363.00,0.0022
2362.00,0.0022
2361.00,0.0022
2360.00,0.0022
2359.00,0.0022
2358.00,0.0022
2357.00,0.0022
2356.00,0.0022
2355.00,0.0022
2354.00,0.0021
2353.00,0.0021
2352.00,0.0021
2351.00,0.0021
2350.00,0.0022
2349.00,0.0022
2348.00,0.0021
2347.00,0.0021
2346.00,0.0022
2345.00,0.0022
2344.00,0.0022
2343.00,0.0021
2342.00,0.0021
2341.00,0.0021
2340.00,0.0021
2339.00,0.0022
2338.00,0.0022
2337.00,0.0022
2336.00,0.0021
2335.00,0.0021
2334.00,0.0021
2333.00,0.0022
2332.00,0.0022
2331.00,0.0022
2330.00,0.0021
2329.00,0.0021
2328.00,0.0022
2327.00,0.0024
2326.00,0.0025
2325.00,0.0025
2324.00,0.0025
2323.00,0.0024
2322.00,0.0024
2321.00,0.0024
2320.00,0.0024
2319.00,0.0024
2318.00,0.0025
2317.00,0.0025
2316.00,0.0026
2315.00,0.0026
2314.00,0.0025
2313.00,0.0024
2312.00,0.0024
2311.00,0.0024
2310.00,0.0025
2309.00,0.0025
2308.00,0.0025
2307.00,0.0025
2306.00,0.0025
2305.00,0.0025
2304.00,0.0025
2303.00,0.0025
2302.00,0.0024
2301.00,0.0025
2300.00,0.0025
2299.00,0.0025
2298.00,0.0026
2297.00,0.0026
2296.00,0.0026
2295.00,0.0026
2294.00,0.0026
2293.00,0.0027
2292.00,0.0027
2291.00,0.0028
2290.00,0.0029
2289.00,0.0029
2288.00,0.0029
2287.00,0.0029
2286.00,0.0029
2285.00,0.0029
2284.00,0.0028
2283.00,0.0028
2282.00,0.0027
2281.00,0.0027
2280.00,0.0028
2279.00,0.0028
2278.00,0.0027
2277.00,0.0026
2276.00,0.0026
2275.00,0.0025
2274.00,0.0025
2273.00,0.0025
2272.00,0.0025
2271.00,0.0025
2270.00,0.0025
2269.00,0.0025
2268.00,0.0025
2267.00,0.0025
2266.00,0.0026
2265.00,0.0026
2264.00,0.0026
2263.00,0.0026
2262.00,0.0025
2261.00,0.0026
2260.00,0.0027
2259.00,0.0028
2258.00,0.0028
2257.00,0.0026
2256.00,0.0025
2255.00,0.0024
2254.00,0.0024
2253.00,0.0024
2252.00,0.0025
2251.00,0.0025
2250.00,0.0025
2249.00,0.0025
2248.00,0.0025
2247.00,0.0024
2246.00,0.0024
2245.00,0.0025
2244.00,0.0025
2243.00,0.0026
2242.00,0.0026
2241.00,0.0026
2240.00,0.0026
2239.00,0.0026
2238.00,0.0026
2237.00,0.0026
2236.00,0.0026
2235.00,0.0026
2234.00,0.0027
2233.00,0.0027
2232.00,0.0026
2231.00,0.0027
2230.00,0.0028
2229.00,0.0029
2228.00,0.0029
2227.00,0.0028
2226.00,0.0027
2225.00,0.0026
2224.00,0.0026
2223.00,0.0025
2222.00,0.0024
2221.00,0.0025
2220.00,0.0026
2219.00,0.0027
2218.00,0.0027
2217.00,0.0027
2216.00,0.0027
2215.00,0.0027
2214.00,0.0027
2213.00,0.0027
2212.00,0.0027
2211.00,0.0027
2210.00,0.0027
2209.00,0.0026
2208.00,0.0025
2207.00,0.0025
2206.00,0.0024
2205.00,0.0025
2204.00,0.0026
2203.00,0.0027
2202.00,0.0028
2201.00,0.0029
2200.00,0.0030
2199.00,0.0031
2198.00,0.0032
2197.00,0.0031
2196.00,0.0029
2195.00,0.0028
2194.00,0.0027
2193.00,0.0027
2192.00,0.0026
2191.00,0.0026
2190.00,0.0027
2189.00,0.0028
2188.00,0.0030
2187.00,0.0031
2186.00,0.0031
2185.00,0.0030
2184.00,0.0028
2183.00,0.0026
2182.00,0.0025
2181.00,0.0025
2180.00,0.0026
2179.00,0.0026
2178.00,0.0025
2177.00,0.0023
2176.00,0.0023
2175.00,0.0023
2174.00,0.0026
2173.00,0.0028
2172.00,0.0029
2171.00,0.0029
2170.00,0.0029
2169.00,0.0029
2168.00,0.0029
2167.00,0.0028
2166.00,0.0027
2165.00,0.0027
2164.00,0.0028
2163.00,0.0029
2162.00,0.0029
2161.00,0.0026
2160.00,0.0023
2159.00,0.0021
2158.00,0.0021
2157.00,0.0022
2156.00,0.0023
2155.00,0.0023
2154.00,0.0023
2153.00,0.0023
2152.00,0.0022
2151.00,0.0022
2150.00,0.0021
2149.00,0.0020
2148.00,0.0020
2147.00,0.0019
2146.00,0.0018
2145.00,0.0017
2144.00,0.0018
2143.00,0.0019
2142.00,0.0019
2141.00,0.0020
2140.00,0.0020
2139.00,0.0021
2138.00,0.0021
2137.00,0.0020
2136.00,0.0019
2135.00,0.0019
2134.00,0.0019
2133.00,0.0020
2132.00,0.0020
2131.00,0.0019
2130.00,0.0018
2129.00,0.0018
2128.00,0.0019
2127.00,0.0020
2126.00,0.0020
2125.00,0.0020
2124.00,0.0020
2123.00,0.0019
2122.00,0.0019
2121.00,0.0019
2120.00,0.0020
2119.00,0.0021
2118.00,0.0022
2117.00,0.0022
2116.00,0.0021
2115.00,0.0020
2114.00,0.0020
2113.00,0.0020
2112.00,0.0021
2111.00,0.0022
2110.00,0.0022
2109.00,0.0022
2108.00,0.0021
2107.00,0.0021
2106.00,0.0021
2105.00,0.0020
2104.00,0.0020
2103.00,0.0021
2102.00,0.0022
2101.00,0.0022
2100.00,0.0021
2099.00,0.0019
2098.00,0.0018
2097.00,0.0018
2096.00,0.0019
2095.00,0.0019
2094.00,0.0020
2093.00,0.0021
2092.00,0.0021
2091.00,0.0021
2090.00,0.0021
2089.00,0.0020
2088.00,0.0019
2087.00,0.0019
2086.00,0.0019
2085.00,0.0019
2084.00,0.0019
2083.00,0.0019
2082.00,0.0019
2081.00,0.0019
2080.00,0.0019
2079.00,0.0019
2078.00,0.0020
2077.00,0.0020
2076.00,0.0020
2075.00,0.0019
2074.00,0.0019
2073.00,0.0018
2072.00,0.0018
2071.00,0.0019
2070.00,0.0019
2069.00,0.0019
2068.00,0.0019
2067.00,0.0018
2066.00,0.0018
2065.00,0.0018
2064.00,0.0018
2063.00,0.0018
2062.00,0.0017
2061.00,0.0017
2060.00,0.0017
2059.00,0.0017
2058.00,0.0017
2057.00,0.0018
2056.00,0.0019
2055.00,0.0020
2054.00,0.0020
2053.00,0.0021
2052.00,0.0022
2051.00,0.0022
2050.00,0.0022
2049.00,0.0020
2048.00,0.0018
2047.00,0.0017
2046.00,0.0017
2045.00,0.0018
2044.00,0.0018
2043.00,0.0018
2042.00,0.0018
2041.00,0.0018
2040.00,0.0018
2039.00,0.0019
2038.00,0.0021
2037.00,0.0023
2036.00,0.0025
2035.00,0.0026
2034.00,0.0025
2033.00,0.0023
2032.00,0.0022
2031.00,0.0021
2030.00,0.0020
2029.00,0.0021
2028.00,0.0021
2027.00,0.0021
2026.00,0.0019
2025.00,0.0017
2024.00,0.0015
2023.00,0.0014
2022.00,0.0014
2021.00,0.0016
2020.00,0.0018
2019.00,0.0020
2018.00,0.0021
2017.00,0.0021
2016.00,0.0020
2015.00,0.0019
2014.00,0.0020
2013.00,0.0021
2012.00,0.0022
2011.00,0.0022
2010.00,0.0021
2009.00,0.0019
2008.00,0.0018
2007.00,0.0017
2006.00,0.0017
2005.00,0.0018
2004.00,0.0018
2003.00,0.0018
2002.00,0.0018
2001.00,0.0018
2000.00,0.0018
1999.00,0.0018
1998.00,0.0018
1997.00,0.0019
1996.00,0.0020
1995.00,0.0020
1994.00,0.0020
1993.00,0.0020
1992.00,0.0019
1991.00,0.0019
1990.00,0.0018
1989.00,0.0018
1988.00,0.0017
1987.00,0.0017
1986.00,0.0018
1985.00,0.0020
1984.00,0.0020
1983.00,0.0020
1982.00,0.0020
1981.00,0.0021
1980.00,0.0022
1979.00,0.0022
1978.00,0.0020
1977.00,0.0018
1976.00,0.0018
1975.00,0.0018
1974.00,0.0018
1973.00,0.0019
1972.00,0.0021
1971.00,0.0023
1970.00,0.0024
1969.00,0.0023
1968.00,0.0021
1967.00,0.0020
1966.00,0.0020
1965.00,0.0021
1964.00,0.0020
1963.00,0.0019
1962.00,0.0016
1961.00,0.0015
1960.00,0.0013
1959.00,0.0012
1958.00,0.0011
1957.00,0.0011
1956.00,0.0013
1955.00,0.0014
1954.00,0.0015
1953.00,0.0016
1952.00,0.0015
1951.00,0.0014
1950.00,0.0013
1949.00,0.0013
1948.00,0.0014
1947.00,0.0016
1946.00,0.0017
1945.00,0.0018
1944.00,0.0017
1943.00,0.0016
1942.00,0.0016
1941.00,0.0015
1940.00,0.0015
1939.00,0.0013
1938.00,0.0012
1937.00,0.0012
1936.00,0.0013
1935.00,0.0014
1934.00,0.0014
1933.00,0.0014
1932.00,0.0014
1931.00,0.0013
1930.00,0.0013
1929.00,0.0012
1928.00,0.0012
1927.00,0.0012
1926.00,0.0012
1925.00,0.0013
1924.00,0.0013
1923.00,0.0013
1922.00,0.0013
1921.00,0.0013
1920.00,0.0014
1919.00,0.0015
1918.00,0.0014
1917.00,0.0014
1916.00,0.0013
1915.00,0.0013
1914.00,0.0013
1913.00,0.0012
1912.00,0.0012
1911.00,0.0011
1910.00,0.0011
1909.00,0.0011
1908.00,0.0011
1907.00,0.0011
1906.00,0.0011
1905.00,0.0012
1904.00,0.0012
1903.00,0.0011
1902.00,0.0010
1901.00,0.0009
1900.00,0.0009
1899.00,0.0010
1898.00,0.0010
1897.00,0.0010
1896.00,0.0010
1895.00,0.0010
1894.00,0.0010
1893.00,0.0010
1892.00,0.0010
1891.00,0.0009
1890.00,0.0009
1889.00,0.0009
1888.00,0.0009
1887.00,0.0009
1886.00,0.0009
1885.00,0.0010
1884.00,0.0010
1883.00,0.0010
1882.00,0.0010
1881.00,0.0010
1880.00,0.0010
1879.00,0.0010
1878.00,0.0010
1877.00,0.0010
1876.00,0.0010
1875.00,0.0011
1874.00,0.0011
1873.00,0.0011
1872.00,0.0011
1871.00,0.0011
1870.00,0.0012
1869.00,0.0012
1868.00,0.0011
1867.00,0.0011
1866.00,0.0011
1865.00,0.0011
1864.00,0.0011
1863.00,0.0011
1862.00,0.0010
1861.00,0.0009
1860.00,0.0008
1859.00,0.0008
1858.00,0.0009
1857.00,0.0009
1856.00,0.0009
1855.00,0.0008
1854.00,0.0008
1853.00,0.0009
1852.00,0.0009
1851.00,0.0009
1850.00,0.0009
1849.00,0.0009
1848.00,0.0009
1847.00,0.0009
1846.00,0.0009
1845.00,0.0009
1844.00,0.0009
1843.00,0.0008
1842.00,0.0007
1841.00,0.0007
1840.00,0.0007
1839.00,0.0008
1838.00,0.0008
1837.00,0.0007
1836.00,0.0006
1835.00,0.0006
1834.00,0.0006
1833.00,0.0007
1832.00,0.0007
1831.00,0.0007
1830.00,0.0007
1829.00,0.0006
1828.00,0.0005
1827.00,0.0005
1826.00,0.0004
1825.00,0.0004
1824.00,0.0005
1823.00,0.0005
1822.00,0.0006
1821.00,0.0006
1820.00,0.0006
1819.00,0.0006
1818.00,0.0005
1817.00,0.0005
1816.00,0.0005
1815.00,0.0004
1814.00,0.0005
1813.00,0.0005
1812.00,0.0004
1811.00,0.0004
1810.00,0.0004
1809.00,0.0004
1808.00,0.0005
1807.00,0.0005
1806.00,0.0005
1805.00,0.0006
1804.00,0.0005
1803.00,0.0005
1802.00,0.0005
1801.00,0.0005
1800.00,0.0006
1799.00,0.0006
1798.00,0.0008
1797.00,0.0008
1796.00,0.0008
1795.00,0.0008
1794.00,0.0009
1793.00,0.0009
1792.00,0.0009
1791.00,0.0008
1790.00,0.0007
1789.00,0.0007
1788.00,0.0008
1787.00,0.0009
1786.00,0.0009
1785.00,0.0009
1784.00,0.0009
1783.00,0.0009
1782.00,0.0009
1781.00,0.0009
1780.00,0.0009
1779.00,0.0010
1778.00,0.0011
1777.00,0.0012
1776.00,0.0012
1775.00,0.0012
1774.00,0.0013
1773.00,0.0014
1772.00,0.0014
1771.00,0.0014
1770.00,0.0013
1769.00,0.0014
1768.00,0.0015
1767.00,0.0016
1766.00,0.0016
1765.00,0.0016
1764.00,0.0016
1763.00,0.0016
1762.00,0.0016
1761.00,0.0015
1760.00,0.0015
1759.00,0.0015
1758.00,0.0016
1757.00,0.0016
1756.00,0.0016
1755.00,0.0016
1754.00,0.0017
1753.00,0.0018
1752.00,0.0019
1751.00,0.0020
1750.00,0.0020
1749.00,0.0020
1748.00,0.0021
1747.00,0.0021
1746.00,0.0021
1745.00,0.0021
1744.00,0.0021
1743.00,0.0021
1742.00,0.0022
1741.00,0.0024
1740.00,0.0026
1739.00,0.0027
1738.00,0.0028
1737.00,0.0029
1736.00,0.0032
1735.00,0.0035
1734.00,0.0036
1733.00,0.0035
1732.00,0.0034
1731.00,0.0033
1730.00,0.0033
1729.00,0.0033
1728.00,0.0035
1727.00,0.0036
1726.00,0.0038
1725.00,0.0039
1724.00,0.0040
1723.00,0.0040
1722.00,0.0041
1721.00,0.0040
1720.00,0.0040
1719.00,0.0040
1718.00,0.0042
1717.00,0.0044
1716.00,0.0045
1715.00,0.0045
1714.00,0.0044
1713.00,0.0044
1712.00,0.0044
1711.00,0.0045
1710.00,0.0045
1709.00,0.0045
1708.00,0.0045
1707.00,0.0045
1706.00,0.0045
1705.00,0.0045
1704.00,0.0045
1703.00,0.0046
1702.00,0.0048
1701.00,0.0050
1700.00,0.0052
1699.00,0.0052
1698.00,0.0052
1697.00,0.0051
1696.00,0.0050
1695.00,0.0050
1694.00,0.0050
1693.00,0.0050
1692.00,0.0050
1691.00,0.0050
1690.00,0.0051
1689.00,0.0052
1688.00,0.0052
1687.00,0.0051
1686.00,0.0051
1685.00,0.0050
1684.00,0.0049
1683.00,0.0049
1682.00,0.0051
1681.00,0.0053
1680.00,0.0054
1679.00,0.0054
1678.00,0.0055
1677.00,0.0056
1676.00,0.0057
1675.00,0.0058
1674.00,0.0058
1673.00,0.0057
1672.00,0.0058
1671.00,0.0059
1670.00,0.0061
1669.00,0.0060
1668.00,0.0060
1667.00,0.0060
1666.00,0.0060
1665.00,0.0061
1664.00,0.0061
1663.00,0.0062
1662.00,0.0062
1661.00,0.0063
1660.00,0.0064
1659.00,0.0065
1658.00,0.0066
1657.00,0.0065
1656.00,0.0063
1655.00,0.0063
1654.00,0.0063
1653.00,0.0064
1652.00,0.0065
1651.00,0.0067
1650.00,0.0068
1649.00,0.0070
1648.00,0.0072
1647.00,0.0073
1646.00,0.0073
1645.00,0.0073
1644.00,0.0073
1643.00,0.0073
1642.00,0.0073
1641.00,0.0074
1640.00,0.0074
1639.00,0.0074
1638.00,0.0073
1637.00,0.0073
1636.00,0.0073
1635.00,0.0073
1634.00,0.0074
1633.00,0.0075
1632.00,0.0076
1631.00,0.0076
1630.00,0.0076
1629.00,0.0076
1628.00,0.0076
1627.00,0.0077
1626.00,0.0078
1625.00,0.0080
1624.00,0.0081
1623.00,0.0082
1622.00,0.0082
1621.00,0.0081
1620.00,0.0082
1619.00,0.0082
1618.00,0.0083
1617.00,0.0084
1616.00,0.0084
1615.00,0.0085
1614.00,0.0085
1613.00,0.0085
1612.00,0.0085
1611.00,0.0086
1610.00,0.0086
1609.00,0.0087
1608.00,0.0087
1607.00,0.0087
1606.00,0.0087
1605.00,0.0087
1604.00,0.0087
1603.00,0.0087
1602.00,0.0087
1601.00,0.0088
1600.00,0.0088
1599.00,0.0088
1598.00,0.0088
1597.00,0.0088
1596.00,0.0088
1595.00,0.0088
1594.00,0.0088
1593.00,0.0088
1592.00,0.0088
1591.00,0.0088
1590.00,0.0089
1589.00,0.0088
1588.00,0.0088
1587.00,0.0088
1586.00,0.0088
1585.00,0.0088
1584.00,0.0088
1583.00,0.0089
1582.00,0.0089
1581.00,0.0089
1580.00,0.0089
1579.00,0.0089
1578.00,0.0089
1577.00,0.0090
1576.00,0.0091
1575.00,0.0091
1574.00,0.0090
1573.00,0.0090
1572.00,0.0090
1571.00,0.0090
1570.00,0.0090
1569.00,0.0089
1568.00,0.0089
1567.00,0.0089
1566.00,0.0089
1565.00,0.0090
1564.00,0.0089
1563.00,0.0089
1562.00,0.0087
1561.00,0.0084
1560.00,0.0085
1559.00,0.0090
1558.00,0.0092
1557.00,0.0093
1556.00,0.0093
1555.00,0.0092
1554.00,0.0091
1553.00,0.0089
1552.00,0.0087
1551.00,0.0086
1550.00,0.0085
1549.00,0.0086
1548.00,0.0086
1547.00,0.0086
1546.00,0.0086
1545.00,0.0086
1544.00,0.0087
1543.00,0.0088
1542.00,0.0088
1541.00,0.0087
1540.00,0.0081
1539.00,0.0076
1538.00,0.0076
1537.00,0.0077
1536.00,0.0077
1535.00,0.0077
1534.00,0.0077
1533.00,0.0077
1532.00,0.0076
1531.00,0.0077
1530.00,0.0078
1529.00,0.0078
1528.00,0.0078
1527.00,0.0079
1526.00,0.0079
1525.00,0.0080
1524.00,0.0080
1523.00,0.0080
1522.00,0.0079
1521.00,0.0077
1520.00,0.0075
1519.00,0.0073
1518.00,0.0071
1517.00,0.0071
1516.00,0.0070
1515.00,0.0070
1514.00,0.0071
1513.00,0.0072
1512.00,0.0072
1511.00,0.0071
1510.00,0.0070
1509.00,0.0071
1508.00,0.0072
1507.00,0.0070
1506.00,0.0066
1505.00,0.0067
1504.00,0.0068
1503.00,0.0068
1502.00,0.0068
1501.00,0.0067
1500.00,0.0066
1499.00,0.0065
1498.00,0.0065
1497.00,0.0065
1496.00,0.0064
1495.00,0.0064
1494.00,0.0064
1493.00,0.0066
1492.00,0.0067
1491.00,0.0067
1490.00,0.0067
1489.00,0.0065
1488.00,0.0063
1487.00,0.0062
1486.00,0.0062
1485.00,0.0062
1484.00,0.0063
1483.00,0.0063
1482.00,0.0064
1481.00,0.0064
1480.00,0.0064
1479.00,0.0064
1478.00,0.0063
1477.00,0.0064
1476.00,0.0065
1475.00,0.0067
1474.00,0.0070
1473.00,0.0071
1472.00,0.0069
1471.00,0.0066
1470.00,0.0065
1469.00,0.0065
1468.00,0.0065
1467.00,0.0064
1466.00,0.0064
1465.00,0.0065
1464.00,0.0065
1463.00,0.0065
1462.00,0.0065
1461.00,0.0064
1460.00,0.0064
1459.00,0.0064
1458.00,0.0067
1457.00,0.0069
1456.00,0.0069
1455.00,0.0067
1454.00,0.0067
1453.00,0.0067
1452.00,0.0068
1451.00,0.0068
1450.00,0.0067
1449.00,0.0068
1448.00,0.0068
1447.00,0.0068
1446.00,0.0068
1445.00,0.0067
1444.00,0.0067
1443.00,0.0068
1442.00,0.0068
1441.00,0.0069
1440.00,0.0069
1439.00,0.0070
1438.00,0.0070
1437.00,0.0071
1436.00,0.0072
1435.00,0.0071
1434.00,0.0071
1433.00,0.0071
1432.00,0.0071
1431.00,0.0071
1430.00,0.0071
1429.00,0.0071
1428.00,0.0071
1427.00,0.0072
1426.00,0.0071
1425.00,0.0071
1424.00,0.0072
1423.00,0.0072
1422.00,0.0072
1421.00,0.0072
1420.00,0.0072
1419.00,0.0072
1418.00,0.0072
1417.00,0.0073
1416.00,0.0074
1415.00,0.0075
1414.00,0.0075
1413.00,0.0075
1412.00,0.0075
1411.00,0.0074
1410.00,0.0074
1409.00,0.0073
1408.00,0.0073
1407.00,0.0073
1406.00,0.0073
1405.00,0.0073
1404.00,0.0074
1403.00,0.0075
1402.00,0.0076
1401.00,0.0076
1400.00,0.0076
1399.00,0.0077
1398.00,0.0077
1397.00,0.0078
1396.00,0.0079
1395.00,0.0079
1394.00,0.0079
1393.00,0.0080
1392.00,0.0080
1391.00,0.0080
1390.00,0.0080
1389.00,0.0081
1388.00,0.0081
1387.00,0.0082
1386.00,0.0082
1385.00,0.0082
1384.00,0.0082
1383.00,0.0082
1382.00,0.0083
1381.00,0.0083
1380.00,0.0083
1379.00,0.0083
1378.00,0.0082
1377.00,0.0082
1376.00,0.0082
1375.00,0.0082
1374.00,0.0082
1373.00,0.0082
1372.00,0.0083
1371.00,0.0083
1370.00,0.0083
1369.00,0.0083
1368.00,0.0083
1367.00,0.0083
1366.00,0.0083
1365.00,0.0082
1364.00,0.0081
1363.00,0.0081
1362.00,0.0081
1361.00,0.0081
1360.00,0.0081
1359.00,0.0081
1358.00,0.0081
1357.00,0.0081
1356.00,0.0081
1355.00,0.0081
1354.00,0.0080
1353.00,0.0080
1352.00,0.0080
1351.00,0.0080
1350.00,0.0080
1349.00,0.0080
1348.00,0.0080
1347.00,0.0080
1346.00,0.0080
1345.00,0.0079
1344.00,0.0079
1343.00,0.0079
1342.00,0.0079
1341.00,0.0079
1340.00,0.0079
1339.00,0.0079
1338.00,0.0079
1337.00,0.0078
1336.00,0.0078
1335.00,0.0078
1334.00,0.0078
1333.00,0.0077
1332.00,0.0077
1331.00,0.0078
1330.00,0.0078
1329.00,0.0078
1328.00,0.0078
1327.00,0.0077
1326.00,0.0077
1325.00,0.0077
1324.00,0.0077
1323.00,0.0077
1322.00,0.0078
1321.00,0.0078
1320.00,0.0078
1319.00,0.0078
1318.00,0.0078
1317.00,0.0078
1316.00,0.0078
1315.00,0.0078
1314.00,0.0078
1313.00,0.0077
1312.00,0.0078
1311.00,0.0078
1310.00,0.0078
1309.00,0.0078
1308.00,0.0077
1307.00,0.0077
1306.00,0.0077
1305.00,0.0078
1304.00,0.0078
1303.00,0.0078
1302.00,0.0078
1301.00,0.0079
1300.00,0.0079
1299.00,0.0079
1298.00,0.0079
1297.00,0.0079
1296.00,0.0080
1295.00,0.0080
1294.00,0.0080
1293.00,0.0080
1292.00,0.0080
1291.00,0.0080
1290.00,0.0080
1289.00,0.0080
1288.00,0.0080
1287.00,0.0079
1286.00,0.0079
1285.00,0.0080
1284.00,0.0080
1283.00,0.0080
1282.00,0.0081
1281.00,0.0081
1280.00,0.0082
1279.00,0.0082
1278.00,0.0081
1277.00,0.0081
1276.00,0.0081
1275.00,0.0082
1274.00,0.0082
1273.00,0.0082
1272.00,0.0082
1271.00,0.0082
1270.00,0.0082
1269.00,0.0083
1268.00,0.0082
1267.00,0.0082
1266.00,0.0082
1265.00,0.0082
1264.00,0.0082
1263.00,0.0082
1262.00,0.0082
1261.00,0.0083
1260.00,0.0083
1259.00,0.0083
1258.00,0.0083
1257.00,0.0083
1256.00,0.0084
1255.00,0.0085
1254.00,0.0086
1253.00,0.0085
1252.00,0.0085
1251.00,0.0085
1250.00,0.0085
1249.00,0.0085
1248.00,0.0085
1247.00,0.0086
1246.00,0.0086
1245.00,0.0086
1244.00,0.0086
1243.00,0.0086
1242.00,0.0086
1241.00,0.0086
1240.00,0.0086
1239.00,0.0086
1238.00,0.0086
1237.00,0.0085
1236.00,0.0085
1235.00,0.0086
1234.00,0.0086
1233.00,0.0086
1232.00,0.0086
1231.00,0.0086
1230.00,0.0086
1229.00,0.0086
1228.00,0.0086
1227.00,0.0086
1226.00,0.0085
1225.00,0.0085
1224.00,0.0085
1223.00,0.0085
1222.00,0.0084
1221.00,0.0084
1220.00,0.0083
1219.00,0.0083
1218.00,0.0082
1217.00,0.0082
1216.00,0.0082
1215.00,0.0082
1214.00,0.0083
1213.00,0.0083
1212.00,0.0082
1211.00,0.0082
1210.00,0.0082
1209.00,0.0082
1208.00,0.0083
1207.00,0.0083
1206.00,0.0084
1205.00,0.0084
1204.00,0.0085
1203.00,0.0085
1202.00,0.0085
1201.00,0.0084
1200.00,0.0084
1199.00,0.0084
1198.00,0.0085
1197.00,0.0085
1196.00,0.0085
1195.00,0.0085
1194.00,0.0085
1193.00,0.0085
1192.00,0.0084
1191.00,0.0084
1190.00,0.0085
1189.00,0.0085
1188.00,0.0085
1187.00,0.0085
1186.00,0.0085
1185.00,0.0086
1184.00,0.0086
1183.00,0.0087
1182.00,0.0088
1181.00,0.0088
1180.00,0.0088
1179.00,0.0089
1178.00,0.0089
1177.00,0.0090
1176.00,0.0091
1175.00,0.0092
1174.00,0.0092
1173.00,0.0092
1172.00,0.0090
1171.00,0.0089
1170.00,0.0089
1169.00,0.0090
1168.00,0.0091
1167.00,0.0092
1166.00,0.0092
1165.00,0.0092
1164.00,0.0092
1163.00,0.0093
1162.00,0.0093
1161.00,0.0094
1160.00,0.0094
1159.00,0.0094
1158.00,0.0094
1157.00,0.0095
1156.00,0.0095
1155.00,0.0096
1154.00,0.0095
1153.00,0.0095
1152.00,0.0096
1151.00,0.0096
1150.00,0.0096
1149.00,0.0097
1148.00,0.0098
1147.00,0.0098
1146.00,0.0097
1145.00,0.0098
1144.00,0.0098
1143.00,0.0099
1142.00,0.0099
1141.00,0.0098
1140.00,0.0097
1139.00,0.0097
1138.00,0.0098
1137.00,0.0099
1136.00,0.0099
1135.00,0.0099
1134.00,0.0098
1133.00,0.0098
1132.00,0.0099
1131.00,0.0100
1130.00,0.0101
1129.00,0.0102
1128.00,0.0103
1127.00,0.0103
1126.00,0.0104
1125.00,0.0104
1124.00,0.0104
1123.00,0.0105
1122.00,0.0107
1121.00,0.0108
1120.00,0.0110
1119.00,0.0111
1118.00,0.0112
1117.00,0.0113
1116.00,0.0113
1115.00,0.0113
1114.00,0.0113
1113.00,0.0113
1112.00,0.0113
1111.00,0.0113
1110.00,0.0113
1109.00,0.0113
1108.00,0.0113
1107.00,0.0114
1106.00,0.0114
1105.00,0.0114
1104.00,0.0114
1103.00,0.0114
1102.00,0.0114
1101.00,0.0115
1100.00,0.0115
1099.00,0.0115
1098.00,0.0117
1097.00,0.0118
1096.00,0.0118
1095.00,0.0117
1094.00,0.0117
1093.00,0.0117
1092.00,0.0118
1091.00,0.0119
1090.00,0.0120
1089.00,0.0119
1088.00,0.0119
1087.00,0.0119
1086.00,0.0118
1085.00,0.0117
1084.00,0.0117
1083.00,0.0117
1082.00,0.0117
1081.00,0.0117
1080.00,0.0116
1079.00,0.0115
1078.00,0.0115
1077.00,0.0117
1076.00,0.0119
1075.00,0.0121
1074.00,0.0122
1073.00,0.0124
1072.00,0.0125
1071.00,0.0125
1070.00,0.0125
1069.00,0.0125
1068.00,0.0125
1067.00,0.0127
1066.00,0.0128
1065.00,0.0129
1064.00,0.0128
1063.00,0.0128
1062.00,0.0128
1061.00,0.0129
1060.00,0.0130
1059.00,0.0131
1058.00,0.0131
1057.00,0.0132
1056.00,0.0132
1055.00,0.0133
1054.00,0.0133
1053.00,0.0134
1052.00,0.0135
1051.00,0.0137
1050.00,0.0139
1049.00,0.0139
1048.00,0.0140
1047.00,0.0140
1046.00,0.0141
1045.00,0.0141
1044.00,0.0142
1043.00,0.0143
1042.00,0.0145
1041.00,0.0146
1040.00,0.0146
1039.00,0.0146
1038.00,0.0146
1037.00,0.0148
1036.00,0.0150
1035.00,0.0151
1034.00,0.0151
1033.00,0.0150
1032.00,0.0149
1031.00,0.0148
1030.00,0.0146
1029.00,0.0144
1028.00,0.0142
1027.00,0.0141
1026.00,0.0140
1025.00,0.0138
1024.00,0.0136
1023.00,0.0135
1022.00,0.0134
1021.00,0.0133
1020.00,0.0133
1019.00,0.0133
1018.00,0.0133
1017.00,0.0132
1016.00,0.0132
1015.00,0.0132
1014.00,0.0132
1013.00,0.0133
1012.00,0.0133
1011.00,0.0134
1010.00,0.0133
1009.00,0.0132
1008.00,0.0131
1007.00,0.0131
1006.00,0.0131
1005.00,0.0131
1004.00,0.0129
1003.00,0.0127
1002.00,0.0127
1001.00,0.0126
1000.00,0.0125
999.00,0.0123
998.00,0.0121
997.00,0.0120
996.00,0.0119
995.00,0.0118
994.00,0.0116
993.00,0.0113
992.00,0.0111
991.00,0.0109
990.00,0.0108
989.00,0.0106
988.00,0.0105
987.00,0.0103
986.00,0.0103
985.00,0.0103
984.00,0.0103
983.00,0.0102
982.00,0.0102
981.00,0.0102
980.00,0.0102
979.00,0.0102
978.00,0.0101
977.00,0.0101
976.00,0.0101
975.00,0.0100
974.00,0.0099
973.00,0.0098
972.00,0.0098
971.00,0.0098
970.00,0.0099
969.00,0.0098
968.00,0.0098
967.00,0.0097
966.00,0.0097
965.00,0.0098
964.00,0.0097
963.00,0.0096
962.00,0.0096
961.00,0.0096
960.00,0.0097
959.00,0.0097
958.00,0.0095
957.00,0.0094
956.00,0.0095
955.00,0.0096
954.00,0.0097
953.00,0.0096
952.00,0.0095
951.00,0.0095
950.00,0.0096
949.00,0.0097
948.00,0.0098
947.00,0.0098
946.00,0.0098
945.00,0.0099
944.00,0.0099
943.00,0.0099
942.00,0.0099
941.00,0.0100
940.00,0.0101
939.00,0.0102
938.00,0.0102
937.00,0.0103
936.00,0.0104
935.00,0.0105
934.00,0.0105
933.00,0.0103
932.00,0.0101
931.00,0.0101
930.00,0.0101
929.00,0.0102
928.00,0.0102
927.00,0.0102
926.00,0.0102
925.00,0.0103
924.00,0.0104
923.00,0.0104
922.00,0.0104
921.00,0.0105
920.00,0.0106
919.00,0.0108
918.00,0.0109
917.00,0.0110
916.00,0.0111
915.00,0.0111
914.00,0.0109
913.00,0.0108
912.00,0.0107
911.00,0.0107
910.00,0.0107
909.00,0.0107
908.00,0.0107
907.00,0.0105
906.00,0.0104
905.00,0.0104
904.00,0.0104
903.00,0.0102
902.00,0.0099
901.00,0.0098
900.00,0.0098
899.00,0.0098
898.00,0.0098
897.00,0.0096
896.00,0.0095
895.00,0.0094
894.00,0.0095
893.00,0.0094
892.00,0.0093
891.00,0.0092
890.00,0.0092
889.00,0.0093
888.00,0.0094
887.00,0.0094
886.00,0.0092
885.00,0.0092
884.00,0.0092
883.00,0.0093
882.00,0.0092
881.00,0.0092
880.00,0.0091
879.00,0.0092
878.00,0.0092
877.00,0.0091
876.00,0.0091
875.00,0.0090
874.00,0.0090
873.00,0.0090
872.00,0.0089
871.00,0.0089
870.00,0.0090
869.00,0.0092
868.00,0.0092
867.00,0.0090
866.00,0.0088
865.00,0.0087
864.00,0.0089
863.00,0.0092
862.00,0.0093
861.00,0.0093
860.00,0.0093
859.00,0.0095
858.00,0.0096
857.00,0.0095
856.00,0.0092
855.00,0.0090
854.00,0.0090
853.00,0.0091
852.00,0.0092
851.00,0.0091
850.00,0.0090
849.00,0.0091
848.00,0.0092
847.00,0.0092
846.00,0.0090
845.00,0.0090
844.00,0.0091
843.00,0.0095
842.00,0.0097
841.00,0.0098
840.00,0.0099
839.00,0.0100
838.00,0.0101
837.00,0.0102
836.00,0.0101
835.00,0.0101
834.00,0.0101
833.00,0.0101
832.00,0.0101
831.00,0.0101
830.00,0.0103
829.00,0.0106
828.00,0.0108
827.00,0.0107
826.00,0.0104
825.00,0.0102
824.00,0.0103
823.00,0.0106
822.00,0.0109
821.00,0.0109
820.00,0.0107
819.00,0.0107
818.00,0.0107
817.00,0.0108
816.00,0.0109
815.00,0.0109
814.00,0.0110
813.00,0.0112
812.00,0.0113
811.00,0.0112
810.00,0.0110
809.00,0.0109
808.00,0.0109
807.00,0.0109
806.00,0.0109
805.00,0.0110
804.00,0.0111
803.00,0.0114
802.00,0.0116
801.00,0.0117
800.00,0.0118
799.00,0.0120
798.00,0.0122
797.00,0.0123
796.00,0.0121
795.00,0.0119
794.00,0.0118
793.00,0.0119
792.00,0.0119
791.00,0.0119
790.00,0.0118
789.00,0.0117
788.00,0.0119
787.00,0.0120
786.00,0.0120
785.00,0.0118
784.00,0.0118
783.00,0.0120
782.00,0.0124
781.00,0.0126
780.00,0.0127
779.00,0.0127
778.00,0.0126
777.00,0.0125
776.00,0.0124
775.00,0.0123
774.00,0.0123
773.00,0.0124
772.00,0.0124
771.00,0.0122
770.00,0.0120
769.00,0.0120
768.00,0.0121
767.00,0.0123
766.00,0.0124
765.00,0.0123
764.00,0.0121
763.00,0.0120
762.00,0.0120
761.00,0.0121
760.00,0.0123
759.00,0.0126
758.00,0.0130
757.00,0.0133
756.00,0.0133
755.00,0.0130
754.00,0.0127
753.00,0.0125
752.00,0.0125
751.00,0.0124
750.00,0.0123
749.00,0.0122
748.00,0.0123
747.00,0.0126
746.00,0.0129
745.00,0.0132
744.00,0.0132
743.00,0.0133
742.00,0.0133
741.00,0.0133
740.00,0.0131
739.00,0.0128
738.00,0.0127
737.00,0.0127
736.00,0.0128
735.00,0.0128
734.00,0.0127
733.00,0.0126
732.00,0.0127
731.00,0.0128
730.00,0.0130
729.00,0.0133
728.00,0.0136
727.00,0.0137
726.00,0.0136
725.00,0.0133
724.00,0.0130
723.00,0.0131
722.00,0.0134
721.00,0.0137
720.00,0.0138
719.00,0.0136
718.00,0.0133
717.00,0.0134
716.00,0.0135
715.00,0.0137
714.00,0.0137
713.00,0.0138
712.00,0.0139
711.00,0.0139
710.00,0.0138
709.00,0.0135
708.00,0.0134
707.00,0.0136
706.00,0.0139
705.00,0.0142
704.00,0.0144
703.00,0.0147
702.00,0.0150
701.00,0.0153
700.00,0.0154
699.00,0.0154
698.00,0.0153
697.00,0.0153
696.00,0.0153
695.00,0.0152
694.00,0.0151
693.00,0.0151
692.00,0.0152
691.00,0.0155
690.00,0.0157
689.00,0.0160
688.00,0.0165
687.00,0.0171
686.00,0.0177
685.00,0.0177
684.00,0.0173
683.00,0.0167
682.00,0.0165
681.00,0.0166
680.00,0.0166
679.00,0.0161
678.00,0.0154
677.00,0.0151
676.00,0.0154
675.00,0.0159
674.00,0.0162
673.00,0.0161
672.00,0.0160
671.00,0.0158
670.00,0.0155
669.00,0.0148
668.00,0.0142
667.00,0.0144
666.00,0.0150
665.00,0.0154
664.00,0.0155
663.00,0.0156
662.00,0.0158
661.00,0.0159
660.00,0.0159
659.00,0.0157
658.00,0.0155
657.00,0.0154
656.00,0.0156
655.00,0.0158
654.00,0.0158
653.00,0.0155
652.00,0.0152
651.00,0.0151
650.00,0.0153
