Created as New Dataset,Monday, April 03 2023
cm-1,A
4000.00,0.0099
3999.00,0.0099
3998.00,0.0098
3997.00,0.0098
3996.00,0.0097
3995.00,0.0097
3994.00,0.0097
3993.00,0.0097
3992.00,0.0097
3991.00,0.0097
3990.00,0.0097
3989.00,0.0097
3988.00,0.0097
3987.00,0.0096
3986.00,0.0096
3985.00,0.0097
3984.00,0.0097
3983.00,0.0097
3982.00,0.0097
3981.00,0.0097
3980.00,0.0097
3979.00,0.0097
3978.00,0.0097
3977.00,0.0096
3976.00,0.0096
3975.00,0.0096
3974.00,0.0095
3973.00,0.0096
3972.00,0.0096
3971.00,0.0097
3970.00,0.0097
3969.00,0.0098
3968.00,0.0097
3967.00,0.0096
3966.00,0.0096
3965.00,0.0096
3964.00,0.0096
3963.00,0.0097
3962.00,0.0097
3961.00,0.0097
3960.00,0.0096
3959.00,0.0096
3958.00,0.0096
3957.00,0.0096
3956.00,0.0096
3955.00,0.0095
3954.00,0.0095
3953.00,0.0095
3952.00,0.0095
3951.00,0.0096
3950.00,0.0097
3949.00,0.0097
3948.00,0.0098
3947.00,0.0098
3946.00,0.0097
3945.00,0.0096
3944.00,0.0096
3943.00,0.0095
3942.00,0.0095
3941.00,0.0095
3940.00,0.0095
3939.00,0.0096
3938.00,0.0096
3937.00,0.0096
3936.00,0.0096
3935.00,0.0095
3934.00,0.0095
3933.00,0.0095
3932.00,0.0095
3931.00,0.0095
3930.00,0.0095
3929.00,0.0095
3928.00,0.0096
3927.00,0.0096
3926.00,0.0097
3925.00,0.0097
3924.00,0.0097
3923.00,0.0097
3922.00,0.0096
3921.00,0.0096
3920.00,0.0096
3919.00,0.0096
3918.00,0.0096
3917.00,0.0096
3916.00,0.0096
3915.00,0.0096
3914.00,0.0096
3913.00,0.0096
3912.00,0.0096
3911.00,0.0096
3910.00,0.0096
3909.00,0.0095
3908.00,0.0094
3907.00,0.0093
3906.00,0.0093
3905.00,0.0092
3904.00,0.0092
3903.00,0.0092
3902.00,0.0093
3901.00,0.0093
3900.00,0.0094
3899.00,0.0094
3898.00,0.0094
3897.00,0.0093
3896.00,0.0093
3895.00,0.0094
3894.00,0.0094
3893.00,0.0095
3892.00,0.0095
3891.00,0.0094
3890.00,0.0092
3889.00,0.0090
3888.00,0.0090
3887.00,0.0091
3886.00,0.0091
3885.00,0.0091
3884.00,0.0090
3883.00,0.0090
3882.00,0.0091
3881.00,0.0092
3880.00,0.0092
3879.00,0.0092
3878.00,0.0092
3877.00,0.0093
3876.00,0.0094
3875.00,0.0094
3874.00,0.0093
3873.00,0.0091
3872.00,0.0091
3871.00,0.0092
3870.00,0.0093
3869.00,0.0092
3868.00,0.0091
3867.00,0.0091
3866.00,0.0092
3865.00,0.0093
3864.00,0.0095
3863.00,0.0095
3862.00,0.0095
3861.00,0.0095
3860.00,0.0095
3859.00,0.0094
3858.00,0.0092
3857.00,0.0089
3856.00,0.0087
3855.00,0.0086
3854.00,0.0088
3853.00,0.0089
3852.00,0.0089
3851.00,0.0089
3850.00,0.0090
3849.00,0.0092
3848.00,0.0093
3847.00,0.0093
3846.00,0.0093
3845.00,0.0093
3844.00,0.0093
3843.00,0.0092
3842.00,0.0092
3841.00,0.0092
3840.00,0.0093
3839.00,0.0094
3838.00,0.0094
3837.00,0.0093
3836.00,0.0093
3835.00,0.0093
3834.00,0.0093
3833.00,0.0094
3832.00,0.0094
3831.00,0.0094
3830.00,0.0094
3829.00,0.0094
3828.00,0.0094
3827.00,0.0094
3826.00,0.0093
3825.00,0.0093
3824.00,0.0093
3823.00,0.0094
3822.00,0.0094
3821.00,0.0094
3820.00,0.0092
3819.00,0.0091
3818.00,0.0091
3817.00,0.0093
3816.00,0.0095
3815.00,0.0095
3814.00,0.0095
3813.00,0.0095
3812.00,0.0094
3811.00,0.0094
3810.00,0.0092
3809.00,0.0091
3808.00,0.0092
3807.00,0.0092
3806.00,0.0093
3805.00,0.0093
3804.00,0.0093
3803.00,0.0094
3802.00,0.0095
3801.00,0.0096
3800.00,0.0095
3799.00,0.0094
3798.00,0.0094
3797.00,0.0095
3796.00,0.0095
3795.00,0.0094
3794.00,0.0094
3793.00,0.0094
3792.00,0.0095
3791.00,0.0095
3790.00,0.0095
3789.00,0.0095
3788.00,0.0096
3787.00,0.0096
3786.00,0.0097
3785.00,0.0097
3784.00,0.0097
3783.00,0.0096
3782.00,0.0096
3781.00,0.0095
3780.00,0.0095
3779.00,0.0095
3778.00,0.0095
3777.00,0.0095
3776.00,0.0095
3775.00,0.0095
3774.00,0.0094
3773.00,0.0094
3772.00,0.0093
3771.00,0.0093
3770.00,0.0092
3769.00,0.0091
3768.00,0.0091
3767.00,0.0092
3766.00,0.0093
3765.00,0.0094
3764.00,0.0094
3763.00,0.0094
3762.00,0.0094
3761.00,0.0094
3760.00,0.0094
3759.00,0.0094
3758.00,0.0093
3757.00,0.0092
3756.00,0.0091
3755.00,0.0090
3754.00,0.0089
3753.00,0.0088
3752.00,0.0088
3751.00,0.0090
3750.00,0.0090
3749.00,0.0090
3748.00,0.0090
3747.00,0.0090
3746.00,0.0091
3745.00,0.0091
3744.00,0.0089
3743.00,0.0087
3742.00,0.0086
3741.00,0.0088
3740.00,0.0091
3739.00,0.0092
3738.00,0.0093
3737.00,0.0093
3736.00,0.0092
3735.00,0.0092
3734.00,0.0091
3733.00,0.0091
3732.00,0.0090
3731.00,0.0090
3730.00,0.0090
3729.00,0.0091
3728.00,0.0091
3727.00,0.0092
3726.00,0.0092
3725.00,0.0091
3724.00,0.0091
3723.00,0.0092
3722.00,0.0092
3721.00,0.0093
3720.00,0.0094
3719.00,0.0094
3718.00,0.0094
3717.00,0.0093
3716.00,0.0091
3715.00,0.0090
3714.00,0.0090
3713.00,0.0091
3712.00,0.0092
3711.00,0.0092
3710.00,0.0091
3709.00,0.0090
3708.00,0.0091
3707.00,0.0092
3706.00,0.0093
3705.00,0.0094
3704.00,0.0094
3703.00,0.0093
3702.00,0.0093
3701.00,0.0092
3700.00,0.0093
3699.00,0.0093
3698.00,0.0094
3697.00,0.0094
3696.00,0.0094
3695.00,0.0093
3694.00,0.0092
3693.00,0.0090
3692.00,0.0090
3691.00,0.0091
3690.00,0.0093
3689.00,0.0094
3688.00,0.0095
3687.00,0.0094
3686.00,0.0093
3685.00,0.0093
3684.00,0.0093
3683.00,0.0093
3682.00,0.0092
3681.00,0.0091
3680.00,0.0089
3679.00,0.0087
3678.00,0.0085
3677.00,0.0084
3676.00,0.0085
3675.00,0.0085
3674.00,0.0084
3673.00,0.0083
3672.00,0.0084
3671.00,0.0087
3670.00,0.0089
3669.00,0.0090
3668.00,0.0089
3667.00,0.0089
3666.00,0.0089
3665.00,0.0090
3664.00,0.0090
3663.00,0.0090
3662.00,0.0090
3661.00,0.0090
3660.00,0.0091
3659.00,0.0091
3658.00,0.0091
3657.00,0.0092
3656.00,0.0092
3655.00,0.0091
3654.00,0.0090
3653.00,0.0089
3652.00,0.0088
3651.00,0.0086
3650.00,0.0086
3649.00,0.0086
3648.00,0.0087
3647.00,0.0088
3646.00,0.0089
3645.00,0.0090
3644.00,0.0091
3643.00,0.0093
3642.00,0.0094
3641.00,0.0094
3640.00,0.0094
3639.00,0.0094
3638.00,0.0094
3637.00,0.0094
3636.00,0.0094
3635.00,0.0094
3634.00,0.0094
3633.00,0.0092
3632.00,0.0091
3631.00,0.0089
3630.00,0.0090
3629.00,0.0091
3628.00,0.0091
3627.00,0.0091
3626.00,0.0090
3625.00,0.0091
3624.00,0.0092
3623.00,0.0092
3622.00,0.0092
3621.00,0.0092
3620.00,0.0093
3619.00,0.0094
3618.00,0.0094
3617.00,0.0094
3616.00,0.0094
3615.00,0.0095
3614.00,0.0095
3613.00,0.0095
3612.00,0.0094
3611.00,0.0093
3610.00,0.0094
3609.00,0.0095
3608.00,0.0095
3607.00,0.0095
3606.00,0.0095
3605.00,0.0095
3604.00,0.0095
3603.00,0.0096
3602.00,0.0097
3601.00,0.0098
3600.00,0.0098
3599.00,0.0098
3598.00,0.0097
3597.00,0.0096
3596.00,0.0096
3595.00,0.0096
3594.00,0.0096
3593.00,0.0095
3592.00,0.0094
3591.00,0.0093
3590.00,0.0093
3589.00,0.0094
3588.00,0.0094
3587.00,0.0094
3586.00,0.0094
3585.00,0.0094
3584.00,0.0095
3583.00,0.0095
3582.00,0.0095
3581.00,0.0095
3580.00,0.0095
3579.00,0.0096
3578.00,0.0096
3577.00,0.0096
3576.00,0.0097
3575.00,0.0097
3574.00,0.0097
3573.00,0.0097
3572.00,0.0097
3571.00,0.0096
3570.00,0.0094
3569.00,0.0094
3568.00,0.0094
3567.00,0.0095
3566.00,0.0096
3565.00,0.0096
3564.00,0.0096
3563.00,0.0096
3562.00,0.0096
3561.00,0.0097
3560.00,0.0097
3559.00,0.0097
3558.00,0.0098
3557.00,0.0098
3556.00,0.0099
3555.00,0.0099
3554.00,0.0099
3553.00,0.0099
3552.00,0.0099
3551.00,0.0099
3550.00,0.0100
3549.00,0.0100
3548.00,0.0099
3547.00,0.0099
3546.00,0.0099
3545.00,0.0100
3544.00,0.0100
3543.00,0.0100
3542.00,0.0100
3541.00,0.0100
3540.00,0.0099
3539.00,0.0098
3538.00,0.0097
3537.00,0.0096
3536.00,0.0097
3535.00,0.0098
3534.00,0.0099
3533.00,0.0100
3532.00,0.0101
3531.00,0.0100
3530.00,0.0099
3529.00,0.0098
3528.00,0.0097
3527.00,0.0097
3526.00,0.0098
3525.00,0.0099
3524.00,0.0100
3523.00,0.0101
3522.00,0.0101
3521.00,0.0100
3520.00,0.0098
3519.00,0.0097
3518.00,0.0096
3517.00,0.0096
3516.00,0.0096
3515.00,0.0096
3514.00,0.0097
3513.00,0.0098
3512.00,0.0099
3511.00,0.0099
3510.00,0.0099
3509.00,0.0099
3508.00,0.0098
3507.00,0.0098
3506.00,0.0098
3505.00,0.0098
3504.00,0.0099
3503.00,0.0099
3502.00,0.0099
3501.00,0.0099
3500.00,0.0099
3499.00,0.0099
3498.00,0.0100
3497.00,0.0100
3496.00,0.0100
3495.00,0.0100
3494.00,0.0099
3493.00,0.0099
3492.00,0.0099
3491.00,0.0099
3490.00,0.0098
3489.00,0.0098
3488.00,0.0098
3487.00,0.0098
3486.00,0.0098
3485.00,0.0098
3484.00,0.0098
3483.00,0.0099
3482.00,0.0099
3481.00,0.0099
3480.00,0.0099
3479.00,0.0099
3478.00,0.0099
3477.00,0.0099
3476.00,0.0099
3475.00,0.0100
3474.00,0.0100
3473.00,0.0100
3472.00,0.0100
3471.00,0.0100
3470.00,0.0101
3469.00,0.0101
3468.00,0.0100
3467.00,0.0100
3466.00,0.0100
3465.00,0.0100
3464.00,0.0100
3463.00,0.0099
3462.00,0.0098
3461.00,0.0097
3460.00,0.0097
3459.00,0.0098
3458.00,0.0099
3457.00,0.0099
3456.00,0.0099
3455.00,0.0098
3454.00,0.0098
3453.00,0.0098
3452.00,0.0099
3451.00,0.0099
3450.00,0.0100
3449.00,0.0100
3448.00,0.0100
3447.00,0.0100
3446.00,0.0100
3445.00,0.0100
3444.00,0.0100
3443.00,0.0100
3442.00,0.0099
3441.00,0.0098
3440.00,0.0098
3439.00,0.0098
3438.00,0.0098
3437.00,0.0098
3436.00,0.0097
3435.00,0.0097
3434.00,0.0096
3433.00,0.0096
3432.00,0.0097
3431.00,0.0097
3430.00,0.0097
3429.00,0.0097
3428.00,0.0097
3427.00,0.0097
3426.00,0.0098
3425.00,0.0099
3424.00,0.0100
3423.00,0.0100
3422.00,0.0101
3421.00,0.0100
3420.00,0.0100
3419.00,0.0100
3418.00,0.0100
3417.00,0.0100
3416.00,0.0099
3415.00,0.0098
3414.00,0.0098
3413.00,0.0098
3412.00,0.0098
3411.00,0.0099
3410.00,0.0099
3409.00,0.0099
3408.00,0.0099
3407.00,0.0100
3406.00,0.0100
3405.00,0.0099
3404.00,0.0099
3403.00,0.0098
3402.00,0.0098
3401.00,0.0098
3400.00,0.0099
3399.00,0.0099
3398.00,0.0099
3397.00,0.0098
3396.00,0.0097
3395.00,0.0096
3394.00,0.0096
3393.00,0.0097
3392.00,0.0098
3391.00,0.0099
3390.00,0.0100
3389.00,0.0100
3388.00,0.0099
3387.00,0.0098
3386.00,0.0098
3385.00,0.0098
3384.00,0.0098
3383.00,0.0099
3382.00,0.0099
3381.00,0.0099
3380.00,0.0099
3379.00,0.0100
3378.00,0.0100
3377.00,0.0099
3376.00,0.0099
3375.00,0.0099
3374.00,0.0098
3373.00,0.0098
3372.00,0.0098
3371.00,0.0097
3370.00,0.0097
3369.00,0.0097
3368.00,0.0098
3367.00,0.0098
3366.00,0.0097
3365.00,0.0097
3364.00,0.0096
3363.00,0.0097
3362.00,0.0098
3361.00,0.0099
3360.00,0.0100
3359.00,0.0101
3358.00,0.0101
3357.00,0.0100
3356.00,0.0100
3355.00,0.0100
3354.00,0.0100
3353.00,0.0100
3352.00,0.0099
3351.00,0.0099
3350.00,0.0099
3349.00,0.0099
3348.00,0.0099
3347.00,0.0099
3346.00,0.0099
3345.00,0.0098
3344.00,0.0098
3343.00,0.0098
3342.00,0.0098
3341.00,0.0098
3340.00,0.0099
3339.00,0.0099
3338.00,0.0100
3337.00,0.0100
3336.00,0.0099
3335.00,0.0099
3334.00,0.0099
3333.00,0.0099
3332.00,0.0098
3331.00,0.0098
3330.00,0.0097
3329.00,0.0096
3328.00,0.0097
3327.00,0.0097
3326.00,0.0098
3325.00,0.0099
3324.00,0.0100
3323.00,0.0100
3322.00,0.0099
3321.00,0.0099
3320.00,0.0099
3319.00,0.0099
3318.00,0.0098
3317.00,0.0098
3316.00,0.0098
3315.00,0.0098
3314.00,0.0097
3313.00,0.0097
3312.00,0.0097
3311.00,0.0097
3310.00,0.0097
3309.00,0.0098
3308.00,0.0099
3307.00,0.0099
3306.00,0.0099
3305.00,0.0099
3304.00,0.0098
3303.00,0.0098
3302.00,0.0098
3301.00,0.0098
3300.00,0.0098
3299.00,0.0098
3298.00,0.0098
3297.00,0.0098
3296.00,0.0099
3295.00,0.0099
3294.00,0.0100
3293.00,0.0099
3292.00,0.0099
3291.00,0.0098
3290.00,0.0097
3289.00,0.0097
3288.00,0.0098
3287.00,0.0098
3286.00,0.0099
3285.00,0.0099
3284.00,0.0100
3283.00,0.0100
3282.00,0.0099
3281.00,0.0099
3280.00,0.0098
3279.00,0.0098
3278.00,0.0098
3277.00,0.0098
3276.00,0.0098
3275.00,0.0099
3274.00,0.0099
3273.00,0.0099
3272.00,0.0099
3271.00,0.0100
3270.00,0.0100
3269.00,0.0100
3268.00,0.0101
3267.00,0.0101
3266.00,0.0100
3265.00,0.0099
3264.00,0.0098
3263.00,0.0097
3262.00,0.0097
3261.00,0.0098
3260.00,0.0098
3259.00,0.0099
3258.00,0.0099
3257.00,0.0099
3256.00,0.0098
3255.00,0.0097
3254.00,0.0098
3253.00,0.0098
3252.00,0.0098
3251.00,0.0098
3250.00,0.0098
3249.00,0.0097
3248.00,0.0097
3247.00,0.0097
3246.00,0.0098
3245.00,0.0098
3244.00,0.0098
3243.00,0.0098
3242.00,0.0098
3241.00,0.0097
3240.00,0.0097
3239.00,0.0097
3238.00,0.0097
3237.00,0.0098
3236.00,0.0099
3235.00,0.0100
3234.00,0.0100
3233.00,0.0100
3232.00,0.0099
3231.00,0.0099
3230.00,0.0098
3229.00,0.0098
3228.00,0.0097
3227.00,0.0097
3226.00,0.0098
3225.00,0.0098
3224.00,0.0098
3223.00,0.0098
3222.00,0.0098
3221.00,0.0098
3220.00,0.0098
3219.00,0.0097
3218.00,0.0097
3217.00,0.0097
3216.00,0.0098
3215.00,0.0098
3214.00,0.0099
3213.00,0.0098
3212.00,0.0098
3211.00,0.0097
3210.00,0.0096
3209.00,0.0096
3208.00,0.0096
3207.00,0.0097
3206.00,0.0097
3205.00,0.0097
3204.00,0.0097
3203.00,0.0097
3202.00,0.0098
3201.00,0.0098
3200.00,0.0098
3199.00,0.0098
3198.00,0.0098
3197.00,0.0098
3196.00,0.0098
3195.00,0.0098
3194.00,0.0097
3193.00,0.0097
3192.00,0.0097
3191.00,0.0096
3190.00,0.0096
3189.00,0.0095
3188.00,0.0095
3187.00,0.0095
3186.00,0.0095
3185.00,0.0095
3184.00,0.0096
3183.00,0.0096
3182.00,0.0097
3181.00,0.0097
3180.00,0.0097
3179.00,0.0096
3178.00,0.0095
3177.00,0.0095
3176.00,0.0094
3175.00,0.0094
3174.00,0.0095
3173.00,0.0095
3172.00,0.0096
3171.00,0.0095
3170.00,0.0095
3169.00,0.0095
3168.00,0.0095
3167.00,0.0095
3166.00,0.0096
3165.00,0.0096
3164.00,0.0097
3163.00,0.0097
3162.00,0.0097
3161.00,0.0096
3160.00,0.0095
3159.00,0.0094
3158.00,0.0093
3157.00,0.0093
3156.00,0.0093
3155.00,0.0094
3154.00,0.0095
3153.00,0.0095
3152.00,0.0095
3151.00,0.0095
3150.00,0.0095
3149.00,0.0094
3148.00,0.0094
3147.00,0.0094
3146.00,0.0094
3145.00,0.0094
3144.00,0.0094
3143.00,0.0094
3142.00,0.0094
3141.00,0.0094
3140.00,0.0094
3139.00,0.0093
3138.00,0.0094
3137.00,0.0094
3136.00,0.0094
3135.00,0.0095
3134.00,0.0095
3133.00,0.0095
3132.00,0.0095
3131.00,0.0095
3130.00,0.0095
3129.00,0.0094
3128.00,0.0094
3127.00,0.0094
3126.00,0.0094
3125.00,0.0094
3124.00,0.0094
3123.00,0.0094
3122.00,0.0094
3121.00,0.0094
3120.00,0.0094
3119.00,0.0095
3118.00,0.0095
3117.00,0.0095
3116.00,0.0094
3115.00,0.0094
3114.00,0.0093
3113.00,0.0093
3112.00,0.0093
3111.00,0.0093
3110.00,0.0093
3109.00,0.0093
3108.00,0.0093
3107.00,0.0093
3106.00,0.0094
3105.00,0.0094
3104.00,0.0095
3103.00,0.0094
3102.00,0.0094
3101.00,0.0094
3100.00,0.0093
3099.00,0.0093
3098.00,0.0093
3097.00,0.0093
3096.00,0.0093
3095.00,0.0094
3094.00,0.0095
3093.00,0.0095
3092.00,0.0095
3091.00,0.0094
3090.00,0.0093
3089.00,0.0092
3088.00,0.0092
3087.00,0.0092
3086.00,0.0092
3085.00,0.0093
3084.00,0.0094
3083.00,0.0094
3082.00,0.0093
3081.00,0.0093
3080.00,0.0093
3079.00,0.0093
3078.00,0.0094
3077.00,0.0094
3076.00,0.0094
3075.00,0.0094
3074.00,0.0094
3073.00,0.0094
3072.00,0.0094
3071.00,0.0094
3070.00,0.0095
3069.00,0.0095
3068.00,0.0095
3067.00,0.0095
3066.00,0.0094
3065.00,0.0094
3064.00,0.0093
3063.00,0.0092
3062.00,0.0092
3061.00,0.0092
3060.00,0.0093
3059.00,0.0093
3058.00,0.0093
3057.00,0.0094
3056.00,0.0094
3055.00,0.0094
3054.00,0.0093
3053.00,0.0093
3052.00,0.0093
3051.00,0.0093
3050.00,0.0094
3049.00,0.0095
3048.00,0.0095
3047.00,0.0095
3046.00,0.0095
3045.00,0.0094
3044.00,0.0093
3043.00,0.0093
3042.00,0.0092
3041.00,0.0092
3040.00,0.0092
3039.00,0.0092
3038.00,0.0093
3037.00,0.0094
3036.00,0.0094
3035.00,0.0094
3034.00,0.0094
3033.00,0.0094
3032.00,0.0093
3031.00,0.0093
3030.00,0.0092
3029.00,0.0092
3028.00,0.0092
3027.00,0.0092
3026.00,0.0092
3025.00,0.0092
3024.00,0.0092
3023.00,0.0092
3022.00,0.0093
3021.00,0.0093
3020.00,0.0092
3019.00,0.0092
3018.00,0.0092
3017.00,0.0092
3016.00,0.0092
3015.00,0.0091
3014.00,0.0091
3013.00,0.0090
3012.00,0.0090
3011.00,0.0090
3010.00,0.0090
3009.00,0.0089
3008.00,0.0087
3007.00,0.0086
3006.00,0.0085
3005.00,0.0084
3004.00,0.0084
3003.00,0.0082
3002.00,0.0080
3001.00,0.0079
3000.00,0.0077
2999.00,0.0076
2998.00,0.0075
2997.00,0.0073
2996.00,0.0073
2995.00,0.0072
2994.00,0.0072
2993.00,0.0072
2992.00,0.0071
2991.00,0.0070
2990.00,0.0069
2989.00,0.0069
2988.00,0.0068
2987.00,0.0066
2986.00,0.0064
2985.00,0.0060
2984.00,0.0057
2983.00,0.0054
2982.00,0.0054
2981.00,0.0054
2980.00,0.0056
2979.00,0.0059
2978.00,0.0062
2977.00,0.0065
2976.00,0.0067
2975.00,0.0068
2974.00,0.0069
2973.00,0.0069
2972.00,0.0070
2971.00,0.0071
2970.00,0.0074
2969.00,0.0078
2968.00,0.0081
2967.00,0.0084
2966.00,0.0086
2965.00,0.0088
2964.00,0.0091
2963.00,0.0093
2962.00,0.0096
2961.00,0.0098
2960.00,0.0100
2959.00,0.0101
2958.00,0.0102
2957.00,0.0104
2956.00,0.0105
2955.00,0.0107
2954.00,0.0108
2953.00,0.0109
2952.00,0.0110
2951.00,0.0110
2950.00,0.0111
2949.00,0.0112
2948.00,0.0112
2947.00,0.0114
2946.00,0.0115
2945.00,0.0117
2944.00,0.0120
2943.00,0.0123
2942.00,0.0126
2941.00,0.0130
2940.00,0.0133
2939.00,0.0136
2938.00,0.0140
2937.00,0.0144
2936.00,0.0149
2935.00,0.0154
2934.00,0.0158
2933.00,0.0163
2932.00,0.0167
2931.00,0.0172
2930.00,0.0177
2929.00,0.0181
2928.00,0.0186
2927.00,0.0189
2926.00,0.0191
2925.00,0.0193
2924.00,0.0193
2923.00,0.0193
2922.00,0.0191
2921.00,0.0188
2920.00,0.0184
2919.00,0.0179
2918.00,0.0174
2917.00,0.0169
2916.00,0.0164
2915.00,0.0159
2914.00,0.0155
2913.00,0.0151
2912.00,0.0148
2911.00,0.0144
2910.00,0.0141
2909.00,0.0138
2908.00,0.0135
2907.00,0.0133
2906.00,0.0131
2905.00,0.0129
2904.00,0.0127
2903.00,0.0125
2902.00,0.0123
2901.00,0.0122
2900.00,0.0121
2899.00,0.0119
2898.00,0.0117
2897.00,0.0116
2896.00,0.0114
2895.00,0.0113
2894.00,0.0111
2893.00,0.0110
2892.00,0.0109
2891.00,0.0108
2890.00,0.0106
2889.00,0.0105
2888.00,0.0104
2887.00,0.0104
2886.00,0.0103
2885.00,0.0101
2884.00,0.0100
2883.00,0.0100
2882.00,0.0100
2881.00,0.0100
2880.00,0.0101
2879.00,0.0102
2878.00,0.0103
2877.00,0.0104
2876.00,0.0104
2875.00,0.0105
2874.00,0.0106
2873.00,0.0106
2872.00,0.0107
2871.00,0.0108
2870.00,0.0108
2869.00,0.0109
2868.00,0.0110
2867.00,0.0111
2866.00,0.0113
2865.00,0.0115
2864.00,0.0118
2863.00,0.0121
2862.00,0.0124
2861.00,0.0128
2860.00,0.0132
2859.00,0.0138
2858.00,0.0143
2857.00,0.0147
2856.00,0.0151
2855.00,0.0153
2854.00,0.0154
2853.00,0.0153
2852.00,0.0152
2851.00,0.0150
2850.00,0.0147
2849.00,0.0142
2848.00,0.0136
2847.00,0.0130
2846.00,0.0125
2845.00,0.0121
2844.00,0.0117
2843.00,0.0114
2842.00,0.0111
2841.00,0.0108
2840.00,0.0106
2839.00,0.0104
2838.00,0.0102
2837.00,0.0101
2836.00,0.0100
2835.00,0.0100
2834.00,0.0099
2833.00,0.0098
2832.00,0.0097
2831.00,0.0096
2830.00,0.0095
2829.00,0.0094
2828.00,0.0094
2827.00,0.0094
2826.00,0.0094
2825.00,0.0093
2824.00,0.0093
2823.00,0.0093
2822.00,0.0092
2821.00,0.0092
2820.00,0.0091
2819.00,0.0090
2818.00,0.0090
2817.00,0.0090
2816.00,0.0090
2815.00,0.0089
2814.00,0.0089
2813.00,0.0088
2812.00,0.0088
2811.00,0.0088
2810.00,0.0088
2809.00,0.0087
2808.00,0.0087
2807.00,0.0087
2806.00,0.0088
2805.00,0.0088
2804.00,0.0088
2803.00,0.0088
2802.00,0.0088
2801.00,0.0088
2800.00,0.0088
2799.00,0.0088
2798.00,0.0088
2797.00,0.0088
2796.00,0.0087
2795.00,0.0087
2794.00,0.0087
2793.00,0.0087
2792.00,0.0087
2791.00,0.0087
2790.00,0.0087
2789.00,0.0087
2788.00,0.0087
2787.00,0.0087
2786.00,0.0086
2785.00,0.0086
2784.00,0.0086
2783.00,0.0086
2782.00,0.0085
2781.00,0.0084
2780.00,0.0084
2779.00,0.0084
2778.00,0.0084
2777.00,0.0085
2776.00,0.0085
2775.00,0.0085
2774.00,0.0085
2773.00,0.0085
2772.00,0.0085
2771.00,0.0084
2770.00,0.0083
2769.00,0.0083
2768.00,0.0082
2767.00,0.0083
2766.00,0.0083
2765.00,0.0083
2764.00,0.0084
2763.00,0.0084
2762.00,0.0084
2761.00,0.0084
2760.00,0.0083
2759.00,0.0083
2758.00,0.0083
2757.00,0.0083
2756.00,0.0083
2755.00,0.0083
2754.00,0.0083
2753.00,0.0083
2752.00,0.0083
2751.00,0.0083
2750.00,0.0083
2749.00,0.0084
2748.00,0.0084
2747.00,0.0084
2746.00,0.0084
2745.00,0.0084
2744.00,0.0084
2743.00,0.0084
2742.00,0.0084
2741.00,0.0084
2740.00,0.0083
2739.00,0.0083
2738.00,0.0082
2737.00,0.0082
2736.00,0.0082
2735.00,0.0082
2734.00,0.0083
2733.00,0.0083
2732.00,0.0083
2731.00,0.0083
2730.00,0.0083
2729.00,0.0082
2728.00,0.0082
2727.00,0.0082
2726.00,0.0083
2725.00,0.0083
2724.00,0.0083
2723.00,0.0083
2722.00,0.0082
2721.00,0.0082
2720.00,0.0082
2719.00,0.0082
2718.00,0.0083
2717.00,0.0083
2716.00,0.0083
2715.00,0.0082
2714.00,0.0082
2713.00,0.0082
2712.00,0.0082
2711.00,0.0082
2710.00,0.0082
2709.00,0.0082
2708.00,0.0082
2707.00,0.0082
2706.00,0.0082
2705.00,0.0082
2704.00,0.0082
2703.00,0.0082
2702.00,0.0081
2701.00,0.0081
2700.00,0.0081
2699.00,0.0081
2698.00,0.0081
2697.00,0.0081
2696.00,0.0081
2695.00,0.0081
2694.00,0.0082
2693.00,0.0082
2692.00,0.0082
2691.00,0.0082
2690.00,0.0082
2689.00,0.0082
2688.00,0.0082
2687.00,0.0082
2686.00,0.0082
2685.00,0.0082
2684.00,0.0082
2683.00,0.0082
2682.00,0.0081
2681.00,0.0081
2680.00,0.0081
2679.00,0.0081
2678.00,0.0081
2677.00,0.0080
2676.00,0.0080
2675.00,0.0080
2674.00,0.0080
2673.00,0.0081
2672.00,0.0081
2671.00,0.0080
2670.00,0.0080
2669.00,0.0080
2668.00,0.0080
2667.00,0.0080
2666.00,0.0081
2665.00,0.0081
2664.00,0.0081
2663.00,0.0082
2662.00,0.0082
2661.00,0.0082
2660.00,0.0082
2659.00,0.0082
2658.00,0.0082
2657.00,0.0082
2656.00,0.0082
2655.00,0.0082
2654.00,0.0082
2653.00,0.0082
2652.00,0.0082
2651.00,0.0083
2650.00,0.0083
2649.00,0.0082
2648.00,0.0082
2647.00,0.0081
2646.00,0.0081
2645.00,0.0081
2644.00,0.0081
2643.00,0.0082
2642.00,0.0082
2641.00,0.0082
2640.00,0.0082
2639.00,0.0082
2638.00,0.0082
2637.00,0.0082
2636.00,0.0082
2635.00,0.0081
2634.00,0.0082
2633.00,0.0082
2632.00,0.0082
2631.00,0.0082
2630.00,0.0081
2629.00,0.0081
2628.00,0.0080
2627.00,0.0080
2626.00,0.0080
2625.00,0.0080
2624.00,0.0081
2623.00,0.0082
2622.00,0.0082
2621.00,0.0083
2620.00,0.0083
2619.00,0.0082
2618.00,0.0082
2617.00,0.0082
2616.00,0.0082
2615.00,0.0082
2614.00,0.0081
2613.00,0.0081
2612.00,0.0082
2611.00,0.0083
2610.00,0.0083
2609.00,0.0082
2608.00,0.0081
2607.00,0.0081
2606.00,0.0082
2605.00,0.0083
2604.00,0.0084
2603.00,0.0084
2602.00,0.0083
2601.00,0.0083
2600.00,0.0082
2599.00,0.0081
2598.00,0.0081
2597.00,0.0080
2596.00,0.0080
2595.00,0.0080
2594.00,0.0080
2593.00,0.0080
2592.00,0.0080
2591.00,0.0081
2590.00,0.0081
2589.00,0.0081
2588.00,0.0081
2587.00,0.0081
2586.00,0.0080
2585.00,0.0079
2584.00,0.0079
2583.00,0.0079
2582.00,0.0079
2581.00,0.0080
2580.00,0.0080
2579.00,0.0081
2578.00,0.0081
2577.00,0.0080
2576.00,0.0079
2575.00,0.0079
2574.00,0.0079
2573.00,0.0079
2572.00,0.0079
2571.00,0.0079
2570.00,0.0078
2569.00,0.0078
2568.00,0.0078
2567.00,0.0080
2566.00,0.0081
2565.00,0.0082
2564.00,0.0081
2563.00,0.0081
2562.00,0.0081
2561.00,0.0081
2560.00,0.0081
2559.00,0.0080
2558.00,0.0080
2557.00,0.0081
2556.00,0.0081
2555.00,0.0081
2554.00,0.0081
2553.00,0.0080
2552.00,0.0079
2551.00,0.0078
2550.00,0.0078
2549.00,0.0077
2548.00,0.0076
2547.00,0.0075
2546.00,0.0076
2545.00,0.0076
2544.00,0.0077
2543.00,0.0077
2542.00,0.0077
2541.00,0.0076
2540.00,0.0075
2539.00,0.0074
2538.00,0.0074
2537.00,0.0074
2536.00,0.0074
2535.00,0.0074
2534.00,0.0075
2533.00,0.0076
2532.00,0.0076
2531.00,0.0076
2530.00,0.0076
2529.00,0.0075
2528.00,0.0074
2527.00,0.0074
2526.00,0.0073
2525.00,0.0073
2524.00,0.0073
2523.00,0.0073
2522.00,0.0074
2521.00,0.0074
2520.00,0.0075
2519.00,0.0075
2518.00,0.0076
2517.00,0.0077
2516.00,0.0077
2515.00,0.0077
2514.00,0.0076
2513.00,0.0075
2512.00,0.0075
2511.00,0.0075
2510.00,0.0076
2509.00,0.0077
2508.00,0.0077
2507.00,0.0077
2506.00,0.0076
2505.00,0.0076
2504.00,0.0075
2503.00,0.0075
2502.00,0.0076
2501.00,0.0076
2500.00,0.0077
2499.00,0.0077
2498.00,0.0077
2497.00,0.0077
2496.00,0.0077
2495.00,0.0077
2494.00,0.0077
2493.00,0.0077
2492.00,0.0077
2491.00,0.0077
2490.00,0.0076
2489.00,0.0076
2488.00,0.0076
2487.00,0.0076
2486.00,0.0075
2485.00,0.0074
2484.00,0.0074
2483.00,0.0073
2482.00,0.0074
2481.00,0.0075
2480.00,0.0076
2479.00,0.0076
2478.00,0.0075
2477.00,0.0074
2476.00,0.0074
2475.00,0.0074
2474.00,0.0074
2473.00,0.0074
2472.00,0.0074
2471.00,0.0074
2470.00,0.0074
2469.00,0.0074
2468.00,0.0074
2467.00,0.0074
2466.00,0.0074
2465.00,0.0073
2464.00,0.0073
2463.00,0.0073
2462.00,0.0073
2461.00,0.0073
2460.00,0.0073
2459.00,0.0074
2458.00,0.0074
2457.00,0.0074
2456.00,0.0074
2455.00,0.0074
2454.00,0.0075
2453.00,0.0076
2452.00,0.0076
2451.00,0.0076
2450.00,0.0076
2449.00,0.0075
2448.00,0.0074
2447.00,0.0074
2446.00,0.0073
2445.00,0.0073
2444.00,0.0072
2443.00,0.0072
2442.00,0.0072
2441.00,0.0072
2440.00,0.0073
2439.00,0.0073
2438.00,0.0073
2437.00,0.0072
2436.00,0.0072
2435.00,0.0072
2434.00,0.0072
2433.00,0.0072
2432.00,0.0072
2431.00,0.0072
2430.00,0.0072
2429.00,0.0072
2428.00,0.0072
2427.00,0.0072
2426.00,0.0072
2425.00,0.0072
2424.00,0.0072
2423.00,0.0072
2422.00,0.0072
2421.00,0.0071
2420.00,0.0071
2419.00,0.0071
2418.00,0.0071
2417.00,0.0071
2416.00,0.0070
2415.00,0.0070
2414.00,0.0070
2413.00,0.0071
2412.00,0.0071
2411.00,0.0071
2410.00,0.0071
2409.00,0.0071
2408.00,0.0071
2407.00,0.0071
2406.00,0.0071
2405.00,0.0070
2404.00,0.0070
2403.00,0.0070
2402.00,0.0069
2401.00,0.0069
2400.00,0.0068
2399.00,0.0068
2398.00,0.0068
2397.00,0.0068
2396.00,0.0068
2395.00,0.0068
2394.00,0.0068
2393.00,0.0068
2392.00,0.0068
2391.00,0.0068
2390.00,0.0067
2389.00,0.0067
2388.00,0.0067
2387.00,0.0067
2386.00,0.0066
2385.00,0.0066
2384.00,0.0065
2383.00,0.0064
2382.00,0.0064
2381.00,0.0064
2380.00,0.0064
2379.00,0.0065
2378.00,0.0065
2377.00,0.0064
2376.00,0.0063
2375.00,0.0063
2374.00,0.0063
2373.00,0.0063
2372.00,0.0064
2371.00,0.0063
2370.00,0.0062
2369.00,0.0059
2368.00,0.0056
2367.00,0.0056
2366.00,0.0059
2365.00,0.0062
2364.00,0.0063
2363.00,0.0063
2362.00,0.0062
2361.00,0.0062
2360.00,0.0062
2359.00,0.0063
2358.00,0.0063
2357.00,0.0064
2356.00,0.0064
2355.00,0.0063
2354.00,0.0061
2353.00,0.0061
2352.00,0.0062
2351.00,0.0063
2350.00,0.0062
2349.00,0.0061
2348.00,0.0060
2347.00,0.0059
2346.00,0.0059
2345.00,0.0060
2344.00,0.0062
2343.00,0.0064
2342.00,0.0066
2341.00,0.0066
2340.00,0.0066
2339.00,0.0065
2338.00,0.0062
2337.00,0.0060
2336.00,0.0060
2335.00,0.0061
2334.00,0.0063
2333.00,0.0064
2332.00,0.0063
2331.00,0.0063
2330.00,0.0063
2329.00,0.0063
2328.00,0.0063
2327.00,0.0065
2326.00,0.0066
2325.00,0.0066
2324.00,0.0065
2323.00,0.0064
2322.00,0.0064
2321.00,0.0065
2320.00,0.0065
2319.00,0.0064
2318.00,0.0064
2317.00,0.0063
2316.00,0.0063
2315.00,0.0063
2314.00,0.0063
2313.00,0.0063
2312.00,0.0063
2311.00,0.0064
2310.00,0.0065
2309.00,0.0067
2308.00,0.0067
2307.00,0.0067
2306.00,0.0067
2305.00,0.0066
2304.00,0.0065
2303.00,0.0065
2302.00,0.0064
2301.00,0.0064
2300.00,0.0064
2299.00,0.0065
2298.00,0.0066
2297.00,0.0066
2296.00,0.0066
2295.00,0.0067
2294.00,0.0067
2293.00,0.0069
2292.00,0.0071
2291.00,0.0072
2290.00,0.0072
2289.00,0.0071
2288.00,0.0071
2287.00,0.0071
2286.00,0.0072
2285.00,0.0073
2284.00,0.0074
2283.00,0.0075
2282.00,0.0074
2281.00,0.0073
2280.00,0.0072
2279.00,0.0072
2278.00,0.0072
2277.00,0.0072
2276.00,0.0071
2275.00,0.0070
2274.00,0.0069
2273.00,0.0067
2272.00,0.0067
2271.00,0.0067
2270.00,0.0068
2269.00,0.0068
2268.00,0.0068
2267.00,0.0068
2266.00,0.0068
2265.00,0.0069
2264.00,0.0069
2263.00,0.0070
2262.00,0.0071
2261.00,0.0071
2260.00,0.0071
2259.00,0.0070
2258.00,0.0068
2257.00,0.0065
2256.00,0.0063
2255.00,0.0062
2254.00,0.0063
2253.00,0.0065
2252.00,0.0066
2251.00,0.0066
2250.00,0.0067
2249.00,0.0067
2248.00,0.0067
2247.00,0.0068
2246.00,0.0069
2245.00,0.0070
2244.00,0.0070
2243.00,0.0069
2242.00,0.0068
2241.00,0.0067
2240.00,0.0066
2239.00,0.0066
2238.00,0.0067
2237.00,0.0067
2236.00,0.0067
2235.00,0.0067
2234.00,0.0068
2233.00,0.0068
2232.00,0.0068
2231.00,0.0066
2230.00,0.0065
2229.00,0.0064
2228.00,0.0064
2227.00,0.0065
2226.00,0.0066
2225.00,0.0066
2224.00,0.0065
2223.00,0.0064
2222.00,0.0063
2221.00,0.0063
2220.00,0.0063
2219.00,0.0064
2218.00,0.0065
2217.00,0.0065
2216.00,0.0066
2215.00,0.0067
2214.00,0.0068
2213.00,0.0067
2212.00,0.0066
2211.00,0.0064
2210.00,0.0063
2209.00,0.0064
2208.00,0.0065
2207.00,0.0066
2206.00,0.0066
2205.00,0.0066
2204.00,0.0065
2203.00,0.0064
2202.00,0.0063
2201.00,0.0062
2200.00,0.0061
2199.00,0.0060
2198.00,0.0061
2197.00,0.0062
2196.00,0.0063
2195.00,0.0063
2194.00,0.0063
2193.00,0.0064
2192.00,0.0064
2191.00,0.0063
2190.00,0.0060
2189.00,0.0058
2188.00,0.0057
2187.00,0.0060
2186.00,0.0064
2185.00,0.0066
2184.00,0.0064
2183.00,0.0060
2182.00,0.0058
2181.00,0.0059
2180.00,0.0061
2179.00,0.0064
2178.00,0.0066
2177.00,0.0066
2176.00,0.0066
2175.00,0.0064
2174.00,0.0063
2173.00,0.0062
2172.00,0.0062
2171.00,0.0064
2170.00,0.0067
2169.00,0.0069
2168.00,0.0070
2167.00,0.0070
2166.00,0.0071
2165.00,0.0073
2164.00,0.0076
2163.00,0.0078
2162.00,0.0078
2161.00,0.0073
2160.00,0.0066
2159.00,0.0057
2158.00,0.0050
2157.00,0.0048
2156.00,0.0049
2155.00,0.0052
2154.00,0.0056
2153.00,0.0059
2152.00,0.0061
2151.00,0.0059
2150.00,0.0056
2149.00,0.0054
2148.00,0.0054
2147.00,0.0057
2146.00,0.0060
2145.00,0.0063
2144.00,0.0063
2143.00,0.0063
2142.00,0.0063
2141.00,0.0064
2140.00,0.0063
2139.00,0.0062
2138.00,0.0060
2137.00,0.0058
2136.00,0.0056
2135.00,0.0056
2134.00,0.0056
2133.00,0.0057
2132.00,0.0058
2131.00,0.0058
2130.00,0.0059
2129.00,0.0059
2128.00,0.0061
2127.00,0.0062
2126.00,0.0063
2125.00,0.0063
2124.00,0.0063
2123.00,0.0063
2122.00,0.0063
2121.00,0.0062
2120.00,0.0061
2119.00,0.0061
2118.00,0.0060
2117.00,0.0060
2116.00,0.0060
2115.00,0.0059
2114.00,0.0057
2113.00,0.0057
2112.00,0.0058
2111.00,0.0060
2110.00,0.0062
2109.00,0.0064
2108.00,0.0065
2107.00,0.0066
2106.00,0.0066
2105.00,0.0066
2104.00,0.0065
2103.00,0.0065
2102.00,0.0066
2101.00,0.0065
2100.00,0.0063
2099.00,0.0061
2098.00,0.0059
2097.00,0.0058
2096.00,0.0058
2095.00,0.0059
2094.00,0.0060
2093.00,0.0062
2092.00,0.0062
2091.00,0.0061
2090.00,0.0061
2089.00,0.0060
2088.00,0.0060
2087.00,0.0061
2086.00,0.0062
2085.00,0.0063
2084.00,0.0064
2083.00,0.0065
2082.00,0.0064
2081.00,0.0064
2080.00,0.0064
2079.00,0.0065
2078.00,0.0066
2077.00,0.0066
2076.00,0.0067
2075.00,0.0067
2074.00,0.0067
2073.00,0.0066
2072.00,0.0066
2071.00,0.0067
2070.00,0.0067
2069.00,0.0066
2068.00,0.0064
2067.00,0.0062
2066.00,0.0061
2065.00,0.0062
2064.00,0.0064
2063.00,0.0066
2062.00,0.0067
2061.00,0.0067
2060.00,0.0066
2059.00,0.0064
2058.00,0.0063
2057.00,0.0063
2056.00,0.0063
2055.00,0.0063
2054.00,0.0065
2053.00,0.0068
2052.00,0.0070
2051.00,0.0070
2050.00,0.0068
2049.00,0.0065
2048.00,0.0063
2047.00,0.0063
2046.00,0.0065
2045.00,0.0068
2044.00,0.0070
2043.00,0.0071
2042.00,0.0069
2041.00,0.0066
2040.00,0.0063
2039.00,0.0062
2038.00,0.0064
2037.00,0.0068
2036.00,0.0071
2035.00,0.0071
2034.00,0.0069
2033.00,0.0069
2032.00,0.0071
2031.00,0.0074
2030.00,0.0075
2029.00,0.0072
2028.00,0.0069
2027.00,0.0066
2026.00,0.0063
2025.00,0.0060
2024.00,0.0057
2023.00,0.0055
2022.00,0.0054
2021.00,0.0054
2020.00,0.0054
2019.00,0.0054
2018.00,0.0053
2017.00,0.0053
2016.00,0.0055
2015.00,0.0058
2014.00,0.0060
2013.00,0.0060
2012.00,0.0059
2011.00,0.0059
2010.00,0.0059
2009.00,0.0060
2008.00,0.0061
2007.00,0.0060
2006.00,0.0058
2005.00,0.0057
2004.00,0.0056
2003.00,0.0058
2002.00,0.0063
2001.00,0.0067
2000.00,0.0068
1999.00,0.0066
1998.00,0.0064
1997.00,0.0064
1996.00,0.0066
1995.00,0.0069
1994.00,0.0071
1993.00,0.0071
1992.00,0.0069
1991.00,0.0066
1990.00,0.0063
1989.00,0.0062
1988.00,0.0061
1987.00,0.0063
1986.00,0.0064
1985.00,0.0066
1984.00,0.0066
1983.00,0.0066
1982.00,0.0066
1981.00,0.0066
1980.00,0.0064
1979.00,0.0059
1978.00,0.0054
1977.00,0.0051
1976.00,0.0051
1975.00,0.0054
1974.00,0.0058
1973.00,0.0059
1972.00,0.0058
1971.00,0.0056
1970.00,0.0056
1969.00,0.0057
1968.00,0.0059
1967.00,0.0058
1966.00,0.0056
1965.00,0.0055
1964.00,0.0056
1963.00,0.0057
1962.00,0.0059
1961.00,0.0059
1960.00,0.0060
1959.00,0.0060
1958.00,0.0059
1957.00,0.0058
1956.00,0.0057
1955.00,0.0056
1954.00,0.0057
1953.00,0.0058
1952.00,0.0059
1951.00,0.0058
1950.00,0.0057
1949.00,0.0056
1948.00,0.0056
1947.00,0.0057
1946.00,0.0058
1945.00,0.0057
1944.00,0.0056
1943.00,0.0054
1942.00,0.0053
1941.00,0.0052
1940.00,0.0051
1939.00,0.0050
1938.00,0.0050
1937.00,0.0050
1936.00,0.0051
1935.00,0.0050
1934.00,0.0050
1933.00,0.0051
1932.00,0.0052
1931.00,0.0053
1930.00,0.0055
1929.00,0.0057
1928.00,0.0058
1927.00,0.0058
1926.00,0.0058
1925.00,0.0057
1924.00,0.0057
1923.00,0.0057
1922.00,0.0058
1921.00,0.0057
1920.00,0.0057
1919.00,0.0055
1918.00,0.0053
1917.00,0.0053
1916.00,0.0054
1915.00,0.0055
1914.00,0.0056
1913.00,0.0056
1912.00,0.0056
1911.00,0.0056
1910.00,0.0056
1909.00,0.0055
1908.00,0.0054
1907.00,0.0054
1906.00,0.0054
1905.00,0.0055
1904.00,0.0056
1903.00,0.0056
1902.00,0.0056
1901.00,0.0055
1900.00,0.0054
1899.00,0.0055
1898.00,0.0056
1897.00,0.0056
1896.00,0.0054
1895.00,0.0053
1894.00,0.0053
1893.00,0.0053
1892.00,0.0054
1891.00,0.0055
1890.00,0.0056
1889.00,0.0056
1888.00,0.0055
1887.00,0.0054
1886.00,0.0053
1885.00,0.0053
1884.00,0.0054
1883.00,0.0055
1882.00,0.0055
1881.00,0.0055
1880.00,0.0054
1879.00,0.0054
1878.00,0.0053
1877.00,0.0052
1876.00,0.0053
1875.00,0.0054
1874.00,0.0055
1873.00,0.0056
1872.00,0.0056
1871.00,0.0056
1870.00,0.0056
1869.00,0.0055
1868.00,0.0055
1867.00,0.0055
1866.00,0.0055
1865.00,0.0055
1864.00,0.0054
1863.00,0.0053
1862.00,0.0052
1861.00,0.0052
1860.00,0.0051
1859.00,0.0052
1858.00,0.0052
1857.00,0.0053
1856.00,0.0054
1855.00,0.0054
1854.00,0.0054
1853.00,0.0053
1852.00,0.0053
1851.00,0.0054
1850.00,0.0054
1849.00,0.0054
1848.00,0.0053
1847.00,0.0053
1846.00,0.0053
1845.00,0.0054
1844.00,0.0053
1843.00,0.0053
1842.00,0.0053
1841.00,0.0054
1840.00,0.0054
1839.00,0.0054
1838.00,0.0054
1837.00,0.0054
1836.00,0.0054
1835.00,0.0054
1834.00,0.0054
1833.00,0.0054
1832.00,0.0055
1831.00,0.0057
1830.00,0.0057
1829.00,0.0056
1828.00,0.0055
1827.00,0.0054
1826.00,0.0054
1825.00,0.0054
1824.00,0.0054
1823.00,0.0054
1822.00,0.0054
1821.00,0.0054
1820.00,0.0054
1819.00,0.0053
1818.00,0.0052
1817.00,0.0052
1816.00,0.0051
1815.00,0.0052
1814.00,0.0052
1813.00,0.0052
1812.00,0.0053
1811.00,0.0053
1810.00,0.0053
1809.00,0.0054
1808.00,0.0055
1807.00,0.0055
1806.00,0.0055
1805.00,0.0055
1804.00,0.0055
1803.00,0.0054
1802.00,0.0054
1801.00,0.0054
1800.00,0.0054
1799.00,0.0054
1798.00,0.0055
1797.00,0.0055
1796.00,0.0056
1795.00,0.0056
1794.00,0.0056
1793.00,0.0057
1792.00,0.0058
1791.00,0.0058
1790.00,0.0057
1789.00,0.0057
1788.00,0.0057
1787.00,0.0058
1786.00,0.0058
1785.00,0.0058
1784.00,0.0058
1783.00,0.0058
1782.00,0.0058
1781.00,0.0058
1780.00,0.0058
1779.00,0.0058
1778.00,0.0059
1777.00,0.0060
1776.00,0.0060
1775.00,0.0061
1774.00,0.0061
1773.00,0.0061
1772.00,0.0061
1771.00,0.0061
1770.00,0.0061
1769.00,0.0062
1768.00,0.0062
1767.00,0.0062
1766.00,0.0062
1765.00,0.0063
1764.00,0.0064
1763.00,0.0065
1762.00,0.0065
1761.00,0.0066
1760.00,0.0067
1759.00,0.0069
1758.00,0.0071
1757.00,0.0073
1756.00,0.0075
1755.00,0.0078
1754.00,0.0081
1753.00,0.0083
1752.00,0.0084
1751.00,0.0085
1750.00,0.0088
1749.00,0.0092
1748.00,0.0095
1747.00,0.0097
1746.00,0.0098
1745.00,0.0098
1744.00,0.0099
1743.00,0.0098
1742.00,0.0098
1741.00,0.0097
1740.00,0.0096
1739.00,0.0094
1738.00,0.0092
1737.00,0.0091
1736.00,0.0089
1735.00,0.0087
1734.00,0.0084
1733.00,0.0081
1732.00,0.0080
1731.00,0.0080
1730.00,0.0080
1729.00,0.0079
1728.00,0.0079
1727.00,0.0078
1726.00,0.0078
1725.00,0.0078
1724.00,0.0078
1723.00,0.0078
1722.00,0.0079
1721.00,0.0079
1720.00,0.0079
1719.00,0.0079
1718.00,0.0079
1717.00,0.0081
1716.00,0.0082
1715.00,0.0084
1714.00,0.0085
1713.00,0.0085
1712.00,0.0086
1711.00,0.0086
1710.00,0.0086
1709.00,0.0085
1708.00,0.0084
1707.00,0.0083
1706.00,0.0082
1705.00,0.0080
1704.00,0.0080
1703.00,0.0080
1702.00,0.0079
1701.00,0.0078
1700.00,0.0075
1699.00,0.0074
1698.00,0.0074
1697.00,0.0076
1696.00,0.0075
1695.00,0.0074
1694.00,0.0072
1693.00,0.0072
1692.00,0.0073
1691.00,0.0073
1690.00,0.0073
1689.00,0.0073
1688.00,0.0073
1687.00,0.0073
1686.00,0.0072
1685.00,0.0071
1684.00,0.0070
1683.00,0.0069
1682.00,0.0069
1681.00,0.0069
1680.00,0.0068
1679.00,0.0068
1678.00,0.0069
1677.00,0.0070
1676.00,0.0072
1675.00,0.0072
1674.00,0.0072
1673.00,0.0072
1672.00,0.0071
1671.00,0.0071
1670.00,0.0071
1669.00,0.0071
1668.00,0.0071
1667.00,0.0071
1666.00,0.0070
1665.00,0.0070
1664.00,0.0070
1663.00,0.0070
1662.00,0.0070
1661.00,0.0070
1660.00,0.0071
1659.00,0.0073
1658.00,0.0074
1657.00,0.0074
1656.00,0.0073
1655.00,0.0071
1654.00,0.0070
1653.00,0.0071
1652.00,0.0071
1651.00,0.0072
1650.00,0.0073
1649.00,0.0074
1648.00,0.0074
1647.00,0.0074
1646.00,0.0074
1645.00,0.0074
1644.00,0.0075
1643.00,0.0075
1642.00,0.0075
1641.00,0.0074
1640.00,0.0074
1639.00,0.0074
1638.00,0.0074
1637.00,0.0075
1636.00,0.0076
1635.00,0.0077
1634.00,0.0076
1633.00,0.0074
1632.00,0.0073
1631.00,0.0073
1630.00,0.0073
1629.00,0.0073
1628.00,0.0073
1627.00,0.0074
1626.00,0.0075
1625.00,0.0076
1624.00,0.0076
1623.00,0.0076
1622.00,0.0075
1621.00,0.0075
1620.00,0.0075
1619.00,0.0075
1618.00,0.0074
1617.00,0.0074
1616.00,0.0073
1615.00,0.0073
1614.00,0.0074
1613.00,0.0074
1612.00,0.0075
1611.00,0.0074
1610.00,0.0074
1609.00,0.0073
1608.00,0.0073
1607.00,0.0072
1606.00,0.0073
1605.00,0.0073
1604.00,0.0073
1603.00,0.0072
1602.00,0.0071
1601.00,0.0070
1600.00,0.0069
1599.00,0.0069
1598.00,0.0070
1597.00,0.0070
1596.00,0.0071
1595.00,0.0071
1594.00,0.0072
1593.00,0.0072
1592.00,0.0071
1591.00,0.0071
1590.00,0.0070
1589.00,0.0070
1588.00,0.0071
1587.00,0.0071
1586.00,0.0072
1585.00,0.0071
1584.00,0.0071
1583.00,0.0071
1582.00,0.0071
1581.00,0.0071
1580.00,0.0071
1579.00,0.0072
1578.00,0.0073
1577.00,0.0074
1576.00,0.0073
1575.00,0.0071
1574.00,0.0070
1573.00,0.0070
1572.00,0.0071
1571.00,0.0071
1570.00,0.0070
1569.00,0.0070
1568.00,0.0069
1567.00,0.0070
1566.00,0.0070
1565.00,0.0070
1564.00,0.0069
1563.00,0.0070
1562.00,0.0070
1561.00,0.0070
1560.00,0.0070
1559.00,0.0072
1558.00,0.0071
1557.00,0.0069
1556.00,0.0069
1555.00,0.0069
1554.00,0.0069
1553.00,0.0069
1552.00,0.0069
1551.00,0.0069
1550.00,0.0069
1549.00,0.0068
1548.00,0.0067
1547.00,0.0067
1546.00,0.0066
1545.00,0.0065
1544.00,0.0064
1543.00,0.0063
1542.00,0.0063
1541.00,0.0063
1540.00,0.0063
1539.00,0.0062
1538.00,0.0062
1537.00,0.0062
1536.00,0.0063
1535.00,0.0064
1534.00,0.0064
1533.00,0.0065
1532.00,0.0065
1531.00,0.0065
1530.00,0.0066
1529.00,0.0066
1528.00,0.0067
1527.00,0.0066
1526.00,0.0065
1525.00,0.0064
1524.00,0.0064
1523.00,0.0065
1522.00,0.0065
1521.00,0.0065
1520.00,0.0066
1519.00,0.0067
1518.00,0.0068
1517.00,0.0068
1516.00,0.0067
1515.00,0.0066
1514.00,0.0065
1513.00,0.0065
1512.00,0.0065
1511.00,0.0064
1510.00,0.0064
1509.00,0.0064
1508.00,0.0064
1507.00,0.0066
1506.00,0.0067
1505.00,0.0066
1504.00,0.0067
1503.00,0.0067
1502.00,0.0066
1501.00,0.0065
1500.00,0.0065
1499.00,0.0066
1498.00,0.0067
1497.00,0.0068
1496.00,0.0068
1495.00,0.0068
1494.00,0.0066
1493.00,0.0065
1492.00,0.0064
1491.00,0.0063
1490.00,0.0063
1489.00,0.0064
1488.00,0.0064
1487.00,0.0065
1486.00,0.0065
1485.00,0.0064
1484.00,0.0064
1483.00,0.0064
1482.00,0.0064
1481.00,0.0064
1480.00,0.0064
1479.00,0.0064
1478.00,0.0064
1477.00,0.0065
1476.00,0.0065
1475.00,0.0065
1474.00,0.0067
1473.00,0.0069
1472.00,0.0073
1471.00,0.0076
1470.00,0.0079
1469.00,0.0081
1468.00,0.0083
1467.00,0.0084
1466.00,0.0083
1465.00,0.0082
1464.00,0.0080
1463.00,0.0079
1462.00,0.0078
1461.00,0.0077
1460.00,0.0076
1459.00,0.0076
1458.00,0.0076
1457.00,0.0076
1456.00,0.0074
1455.00,0.0073
1454.00,0.0073
1453.00,0.0074
1452.00,0.0074
1451.00,0.0073
1450.00,0.0073
1449.00,0.0073
1448.00,0.0074
1447.00,0.0074
1446.00,0.0074
1445.00,0.0075
1444.00,0.0074
1443.00,0.0074
1442.00,0.0073
1441.00,0.0072
1440.00,0.0073
1439.00,0.0073
1438.00,0.0073
1437.00,0.0072
1436.00,0.0071
1435.00,0.0071
1434.00,0.0071
1433.00,0.0071
1432.00,0.0070
1431.00,0.0070
1430.00,0.0069
1429.00,0.0068
1428.00,0.0067
1427.00,0.0067
1426.00,0.0068
1425.00,0.0068
1424.00,0.0067
1423.00,0.0067
1422.00,0.0067
1421.00,0.0067
1420.00,0.0068
1419.00,0.0068
1418.00,0.0068
1417.00,0.0069
1416.00,0.0069
1415.00,0.0069
1414.00,0.0068
1413.00,0.0066
1412.00,0.0065
1411.00,0.0064
1410.00,0.0063
1409.00,0.0063
1408.00,0.0063
1407.00,0.0063
1406.00,0.0062
1405.00,0.0060
1404.00,0.0059
1403.00,0.0058
1402.00,0.0057
1401.00,0.0055
1400.00,0.0054
1399.00,0.0053
1398.00,0.0052
1397.00,0.0052
1396.00,0.0052
1395.00,0.0052
1394.00,0.0052
1393.00,0.0051
1392.00,0.0052
1391.00,0.0052
1390.00,0.0052
1389.00,0.0052
1388.00,0.0052
1387.00,0.0052
1386.00,0.0052
1385.00,0.0052
1384.00,0.0052
1383.00,0.0052
1382.00,0.0053
1381.00,0.0054
1380.00,0.0055
1379.00,0.0056
1378.00,0.0056
1377.00,0.0057
1376.00,0.0057
1375.00,0.0057
1374.00,0.0057
1373.00,0.0057
1372.00,0.0058
1371.00,0.0058
1370.00,0.0058
1369.00,0.0059
1368.00,0.0059
1367.00,0.0059
1366.00,0.0059
1365.00,0.0059
1364.00,0.0059
1363.00,0.0059
1362.00,0.0059
1361.00,0.0060
1360.00,0.0060
1359.00,0.0061
1358.00,0.0062
1357.00,0.0063
1356.00,0.0063
1355.00,0.0064
1354.00,0.0064
1353.00,0.0064
1352.00,0.0063
1351.00,0.0063
1350.00,0.0063
1349.00,0.0062
1348.00,0.0062
1347.00,0.0063
1346.00,0.0063
1345.00,0.0063
1344.00,0.0063
1343.00,0.0063
1342.00,0.0063
1341.00,0.0063
1340.00,0.0064
1339.00,0.0064
1338.00,0.0064
1337.00,0.0064
1336.00,0.0064
1335.00,0.0064
1334.00,0.0065
1333.00,0.0065
1332.00,0.0064
1331.00,0.0064
1330.00,0.0064
1329.00,0.0064
1328.00,0.0064
1327.00,0.0064
1326.00,0.0064
1325.00,0.0064
1324.00,0.0065
1323.00,0.0066
1322.00,0.0067
1321.00,0.0068
1320.00,0.0068
1319.00,0.0067
1318.00,0.0066
1317.00,0.0065
1316.00,0.0064
1315.00,0.0064
1314.00,0.0065
1313.00,0.0066
1312.00,0.0067
1311.00,0.0068
1310.00,0.0069
1309.00,0.0069
1308.00,0.0069
1307.00,0.0068
1306.00,0.0068
1305.00,0.0068
1304.00,0.0069
1303.00,0.0069
1302.00,0.0070
1301.00,0.0070
1300.00,0.0070
1299.00,0.0069
1298.00,0.0068
1297.00,0.0067
1296.00,0.0067
1295.00,0.0067
1294.00,0.0068
1293.00,0.0069
1292.00,0.0070
1291.00,0.0070
1290.00,0.0070
1289.00,0.0070
1288.00,0.0070
1287.00,0.0069
1286.00,0.0069
1285.00,0.0069
1284.00,0.0070
1283.00,0.0071
1282.00,0.0070
1281.00,0.0069
1280.00,0.0068
1279.00,0.0067
1278.00,0.0066
1277.00,0.0066
1276.00,0.0066
1275.00,0.0067
1274.00,0.0067
1273.00,0.0066
1272.00,0.0065
1271.00,0.0065
1270.00,0.0065
1269.00,0.0065
1268.00,0.0065
1267.00,0.0065
1266.00,0.0065
1265.00,0.0064
1264.00,0.0064
1263.00,0.0063
1262.00,0.0062
1261.00,0.0062
1260.00,0.0062
1259.00,0.0063
1258.00,0.0063
1257.00,0.0063
1256.00,0.0062
1255.00,0.0061
1254.00,0.0061
1253.00,0.0062
1252.00,0.0063
1251.00,0.0063
1250.00,0.0062
1249.00,0.0062
1248.00,0.0063
1247.00,0.0064
1246.00,0.0065
1245.00,0.0066
1244.00,0.0066
1243.00,0.0066
1242.00,0.0066
1241.00,0.0065
1240.00,0.0065
1239.00,0.0065
1238.00,0.0066
1237.00,0.0066
1236.00,0.0067
1235.00,0.0067
1234.00,0.0067
1233.00,0.0067
1232.00,0.0067
1231.00,0.0067
1230.00,0.0068
1229.00,0.0068
1228.00,0.0068
1227.00,0.0069
1226.00,0.0069
1225.00,0.0069
1224.00,0.0068
1223.00,0.0068
1222.00,0.0069
1221.00,0.0069
1220.00,0.0070
1219.00,0.0070
1218.00,0.0070
1217.00,0.0070
1216.00,0.0071
1215.00,0.0071
1214.00,0.0071
1213.00,0.0071
1212.00,0.0071
1211.00,0.0072
1210.00,0.0072
1209.00,0.0073
1208.00,0.0073
1207.00,0.0074
1206.00,0.0073
1205.00,0.0073
1204.00,0.0072
1203.00,0.0072
1202.00,0.0072
1201.00,0.0072
1200.00,0.0073
1199.00,0.0073
1198.00,0.0073
1197.00,0.0073
1196.00,0.0073
1195.00,0.0073
1194.00,0.0074
1193.00,0.0074
1192.00,0.0074
1191.00,0.0074
1190.00,0.0074
1189.00,0.0074
1188.00,0.0073
1187.00,0.0073
1186.00,0.0073
1185.00,0.0073
1184.00,0.0073
1183.00,0.0073
1182.00,0.0072
1181.00,0.0071
1180.00,0.0071
1179.00,0.0070
1178.00,0.0070
1177.00,0.0070
1176.00,0.0071
1175.00,0.0071
1174.00,0.0072
1173.00,0.0072
1172.00,0.0072
1171.00,0.0071
1170.00,0.0070
1169.00,0.0069
1168.00,0.0069
1167.00,0.0070
1166.00,0.0070
1165.00,0.0070
1164.00,0.0069
1163.00,0.0069
1162.00,0.0068
1161.00,0.0068
1160.00,0.0067
1159.00,0.0067
1158.00,0.0067
1157.00,0.0066
1156.00,0.0066
1155.00,0.0067
1154.00,0.0068
1153.00,0.0068
1152.00,0.0067
1151.00,0.0066
1150.00,0.0065
1149.00,0.0064
1148.00,0.0063
1147.00,0.0064
1146.00,0.0064
1145.00,0.0064
1144.00,0.0064
1143.00,0.0065
1142.00,0.0066
1141.00,0.0066
1140.00,0.0065
1139.00,0.0064
1138.00,0.0063
1137.00,0.0063
1136.00,0.0063
1135.00,0.0065
1134.00,0.0066
1133.00,0.0067
1132.00,0.0067
1131.00,0.0067
1130.00,0.0067
1129.00,0.0068
1128.00,0.0069
1127.00,0.0069
1126.00,0.0067
1125.00,0.0066
1124.00,0.0066
1123.00,0.0068
1122.00,0.0071
1121.00,0.0074
1120.00,0.0076
1119.00,0.0077
1118.00,0.0076
1117.00,0.0076
1116.00,0.0077
1115.00,0.0078
1114.00,0.0079
1113.00,0.0078
1112.00,0.0077
1111.00,0.0077
1110.00,0.0077
1109.00,0.0077
1108.00,0.0077
1107.00,0.0076
1106.00,0.0075
1105.00,0.0074
1104.00,0.0074
1103.00,0.0075
1102.00,0.0077
1101.00,0.0078
1100.00,0.0078
1099.00,0.0079
1098.00,0.0079
1097.00,0.0078
1096.00,0.0077
1095.00,0.0076
1094.00,0.0076
1093.00,0.0076
1092.00,0.0076
1091.00,0.0076
1090.00,0.0075
1089.00,0.0072
1088.00,0.0070
1087.00,0.0069
1086.00,0.0071
1085.00,0.0072
1084.00,0.0073
1083.00,0.0073
1082.00,0.0073
1081.00,0.0074
1080.00,0.0075
1079.00,0.0077
1078.00,0.0079
1077.00,0.0080
1076.00,0.0079
1075.00,0.0077
1074.00,0.0074
1073.00,0.0073
1072.00,0.0072
1071.00,0.0071
1070.00,0.0070
1069.00,0.0068
1068.00,0.0067
1067.00,0.0068
1066.00,0.0070
1065.00,0.0072
1064.00,0.0074
1063.00,0.0076
1062.00,0.0077
1061.00,0.0075
1060.00,0.0073
1059.00,0.0071
1058.00,0.0072
1057.00,0.0073
1056.00,0.0075
1055.00,0.0077
1054.00,0.0079
1053.00,0.0081
1052.00,0.0081
1051.00,0.0080
1050.00,0.0079
1049.00,0.0081
1048.00,0.0082
1047.00,0.0082
1046.00,0.0082
1045.00,0.0082
1044.00,0.0082
1043.00,0.0083
1042.00,0.0081
1041.00,0.0080
1040.00,0.0079
1039.00,0.0081
1038.00,0.0082
1037.00,0.0083
1036.00,0.0083
1035.00,0.0081
1034.00,0.0080
1033.00,0.0080
1032.00,0.0081
1031.00,0.0082
1030.00,0.0082
1029.00,0.0081
1028.00,0.0080
1027.00,0.0079
1026.00,0.0079
1025.00,0.0080
1024.00,0.0080
1023.00,0.0080
1022.00,0.0079
1021.00,0.0078
1020.00,0.0077
1019.00,0.0077
1018.00,0.0076
1017.00,0.0076
1016.00,0.0076
1015.00,0.0077
1014.00,0.0078
1013.00,0.0078
1012.00,0.0078
1011.00,0.0078
1010.00,0.0078
1009.00,0.0078
1008.00,0.0077
1007.00,0.0076
1006.00,0.0076
1005.00,0.0076
1004.00,0.0077
1003.00,0.0078
1002.00,0.0078
1001.00,0.0078
1000.00,0.0075
999.00,0.0072
998.00,0.0070
997.00,0.0070
996.00,0.0071
995.00,0.0073
994.00,0.0073
993.00,0.0072
992.00,0.0070
991.00,0.0068
990.00,0.0067
989.00,0.0067
988.00,0.0067
987.00,0.0068
986.00,0.0069
985.00,0.0069
984.00,0.0068
983.00,0.0067
982.00,0.0066
981.00,0.0066
980.00,0.0066
979.00,0.0066
978.00,0.0064
977.00,0.0062
976.00,0.0059
975.00,0.0058
974.00,0.0058
973.00,0.0059
972.00,0.0059
971.00,0.0058
970.00,0.0056
969.00,0.0055
968.00,0.0054
967.00,0.0053
966.00,0.0053
965.00,0.0052
964.00,0.0051
963.00,0.0052
962.00,0.0052
961.00,0.0052
960.00,0.0052
959.00,0.0050
958.00,0.0050
957.00,0.0050
956.00,0.0050
955.00,0.0050
954.00,0.0049
953.00,0.0049
952.00,0.0049
951.00,0.0049
950.00,0.0051
949.00,0.0052
948.00,0.0052
947.00,0.0051
946.00,0.0049
945.00,0.0047
944.00,0.0047
943.00,0.0047
942.00,0.0047
941.00,0.0048
940.00,0.0050
939.00,0.0052
938.00,0.0054
937.00,0.0053
936.00,0.0052
935.00,0.0050
934.00,0.0049
933.00,0.0050
932.00,0.0053
931.00,0.0055
930.00,0.0057
929.00,0.0059
928.00,0.0060
927.00,0.0062
926.00,0.0062
925.00,0.0062
924.00,0.0062
923.00,0.0062
922.00,0.0062
921.00,0.0061
920.00,0.0061
919.00,0.0060
918.00,0.0061
917.00,0.0062
916.00,0.0064
915.00,0.0065
914.00,0.0065
913.00,0.0064
912.00,0.0062
911.00,0.0061
910.00,0.0059
909.00,0.0058
908.00,0.0056
907.00,0.0054
906.00,0.0055
905.00,0.0057
904.00,0.0061
903.00,0.0066
902.00,0.0068
901.00,0.0068
900.00,0.0066
899.00,0.0064
898.00,0.0063
897.00,0.0064
896.00,0.0066
895.00,0.0067
894.00,0.0067
893.00,0.0066
892.00,0.0064
891.00,0.0062
890.00,0.0062
889.00,0.0062
888.00,0.0062
887.00,0.0062
886.00,0.0060
885.00,0.0059
884.00,0.0060
883.00,0.0062
882.00,0.0064
881.00,0.0064
880.00,0.0064
879.00,0.0063
878.00,0.0061
877.00,0.0059
876.00,0.0057
875.00,0.0057
874.00,0.0057
873.00,0.0057
872.00,0.0057
871.00,0.0056
870.00,0.0056
869.00,0.0055
868.00,0.0055
867.00,0.0054
866.00,0.0054
865.00,0.0055
864.00,0.0056
863.00,0.0057
862.00,0.0059
861.00,0.0059
860.00,0.0059
859.00,0.0057
858.00,0.0055
857.00,0.0053
856.00,0.0052
855.00,0.0053
854.00,0.0055
853.00,0.0055
852.00,0.0056
851.00,0.0056
850.00,0.0057
849.00,0.0058
848.00,0.0060
847.00,0.0062
846.00,0.0065
845.00,0.0067
844.00,0.0067
843.00,0.0066
842.00,0.0064
841.00,0.0061
840.00,0.0058
839.00,0.0056
838.00,0.0054
837.00,0.0055
836.00,0.0057
835.00,0.0058
834.00,0.0058
833.00,0.0057
832.00,0.0057
831.00,0.0056
830.00,0.0056
829.00,0.0056
828.00,0.0055
827.00,0.0056
826.00,0.0058
825.00,0.0060
824.00,0.0061
823.00,0.0062
822.00,0.0061
821.00,0.0060
820.00,0.0061
819.00,0.0061
818.00,0.0061
817.00,0.0058
816.00,0.0055
815.00,0.0054
814.00,0.0055
813.00,0.0057
812.00,0.0059
811.00,0.0059
810.00,0.0058
809.00,0.0056
808.00,0.0055
807.00,0.0054
806.00,0.0053
805.00,0.0051
804.00,0.0050
803.00,0.0050
802.00,0.0051
801.00,0.0054
800.00,0.0058
799.00,0.0060
798.00,0.0060
797.00,0.0060
796.00,0.0059
795.00,0.0059
794.00,0.0058
793.00,0.0057
792.00,0.0057
791.00,0.0057
790.00,0.0057
789.00,0.0057
788.00,0.0056
787.00,0.0057
786.00,0.0059
785.00,0.0061
784.00,0.0063
783.00,0.0064
782.00,0.0064
781.00,0.0063
780.00,0.0061
779.00,0.0060
778.00,0.0060
777.00,0.0060
776.00,0.0061
775.00,0.0060
774.00,0.0057
773.00,0.0055
772.00,0.0053
771.00,0.0053
770.00,0.0054
769.00,0.0055
768.00,0.0056
767.00,0.0055
766.00,0.0054
765.00,0.0053
764.00,0.0052
763.00,0.0053
762.00,0.0052
761.00,0.0050
760.00,0.0048
759.00,0.0048
758.00,0.0051
757.00,0.0053
756.00,0.0054
755.00,0.0053
754.00,0.0051
753.00,0.0051
752.00,0.0052
751.00,0.0054
750.00,0.0056
749.00,0.0056
748.00,0.0057
747.00,0.0057
746.00,0.0057
745.00,0.0055
744.00,0.0053
743.00,0.0050
742.00,0.0049
741.00,0.0049
740.00,0.0047
739.00,0.0046
738.00,0.0044
737.00,0.0044
736.00,0.0044
735.00,0.0044
734.00,0.0044
733.00,0.0043
732.00,0.0044
731.00,0.0045
730.00,0.0046
729.00,0.0047
728.00,0.0049
727.00,0.0051
726.00,0.0054
725.00,0.0055
724.00,0.0054
723.00,0.0053
722.00,0.0052
721.00,0.0052
720.00,0.0051
719.00,0.0049
718.00,0.0047
717.00,0.0046
716.00,0.0045
715.00,0.0045
714.00,0.0045
713.00,0.0047
712.00,0.0048
711.00,0.0048
710.00,0.0046
709.00,0.0045
708.00,0.0044
707.00,0.0045
706.00,0.0046
705.00,0.0048
704.00,0.0050
703.00,0.0051
702.00,0.0050
701.00,0.0047
700.00,0.0045
699.00,0.0044
698.00,0.0045
697.00,0.0045
696.00,0.0045
695.00,0.0045
694.00,0.0047
693.00,0.0050
692.00,0.0051
691.00,0.0051
690.00,0.0050
689.00,0.0049
688.00,0.0048
687.00,0.0045
686.00,0.0044
685.00,0.0043
684.00,0.0043
683.00,0.0041
682.00,0.0038
681.00,0.0036
680.00,0.0036
679.00,0.0037
678.00,0.0039
677.00,0.0040
676.00,0.0041
675.00,0.0041
674.00,0.0042
673.00,0.0044
672.00,0.0046
671.00,0.0049
670.00,0.0049
669.00,0.0046
668.00,0.0042
667.00,0.0043
666.00,0.0047
665.00,0.0052
664.00,0.0056
663.00,0.0057
662.00,0.0054
661.00,0.0048
660.00,0.0041
659.00,0.0037
658.00,0.0037
657.00,0.0043
656.00,0.0042
655.00,0.0039
654.00,0.0035
653.00,0.0026
652.00,0.0021
651.00,0.0021
650.00,0.0026
