Created as New Dataset,Monday, April 03 2023
cm-1,A
4000.00,0.0039
3999.00,0.0039
3998.00,0.0039
3997.00,0.0039
3996.00,0.0039
3995.00,0.0039
3994.00,0.0039
3993.00,0.0039
3992.00,0.0038
3991.00,0.0038
3990.00,0.0038
3989.00,0.0038
3988.00,0.0037
3987.00,0.0037
3986.00,0.0037
3985.00,0.0037
3984.00,0.0038
3983.00,0.0038
3982.00,0.0038
3981.00,0.0037
3980.00,0.0037
3979.00,0.0037
3978.00,0.0037
3977.00,0.0037
3976.00,0.0037
3975.00,0.0036
3974.00,0.0036
3973.00,0.0036
3972.00,0.0037
3971.00,0.0037
3970.00,0.0038
3969.00,0.0039
3968.00,0.0039
3967.00,0.0038
3966.00,0.0038
3965.00,0.0038
3964.00,0.0038
3963.00,0.0039
3962.00,0.0039
3961.00,0.0039
3960.00,0.0039
3959.00,0.0038
3958.00,0.0038
3957.00,0.0038
3956.00,0.0038
3955.00,0.0037
3954.00,0.0037
3953.00,0.0037
3952.00,0.0037
3951.00,0.0038
3950.00,0.0039
3949.00,0.0039
3948.00,0.0040
3947.00,0.0040
3946.00,0.0040
3945.00,0.0039
3944.00,0.0038
3943.00,0.0037
3942.00,0.0036
3941.00,0.0036
3940.00,0.0036
3939.00,0.0036
3938.00,0.0036
3937.00,0.0036
3936.00,0.0036
3935.00,0.0037
3934.00,0.0037
3933.00,0.0037
3932.00,0.0037
3931.00,0.0037
3930.00,0.0037
3929.00,0.0038
3928.00,0.0038
3927.00,0.0039
3926.00,0.0039
3925.00,0.0039
3924.00,0.0039
3923.00,0.0039
3922.00,0.0040
3921.00,0.0040
3920.00,0.0039
3919.00,0.0039
3918.00,0.0038
3917.00,0.0038
3916.00,0.0038
3915.00,0.0038
3914.00,0.0037
3913.00,0.0037
3912.00,0.0037
3911.00,0.0036
3910.00,0.0036
3909.00,0.0037
3908.00,0.0037
3907.00,0.0037
3906.00,0.0037
3905.00,0.0037
3904.00,0.0037
3903.00,0.0038
3902.00,0.0040
3901.00,0.0041
3900.00,0.0041
3899.00,0.0040
3898.00,0.0039
3897.00,0.0038
3896.00,0.0038
3895.00,0.0037
3894.00,0.0037
3893.00,0.0037
3892.00,0.0037
3891.00,0.0036
3890.00,0.0035
3889.00,0.0036
3888.00,0.0037
3887.00,0.0037
3886.00,0.0036
3885.00,0.0035
3884.00,0.0036
3883.00,0.0038
3882.00,0.0039
3881.00,0.0038
3880.00,0.0037
3879.00,0.0037
3878.00,0.0038
3877.00,0.0039
3876.00,0.0039
3875.00,0.0037
3874.00,0.0035
3873.00,0.0035
3872.00,0.0036
3871.00,0.0037
3870.00,0.0036
3869.00,0.0036
3868.00,0.0037
3867.00,0.0037
3866.00,0.0037
3865.00,0.0037
3864.00,0.0037
3863.00,0.0038
3862.00,0.0039
3861.00,0.0038
3860.00,0.0037
3859.00,0.0036
3858.00,0.0034
3857.00,0.0034
3856.00,0.0034
3855.00,0.0033
3854.00,0.0033
3853.00,0.0034
3852.00,0.0036
3851.00,0.0037
3850.00,0.0037
3849.00,0.0036
3848.00,0.0035
3847.00,0.0034
3846.00,0.0035
3845.00,0.0035
3844.00,0.0035
3843.00,0.0035
3842.00,0.0035
3841.00,0.0036
3840.00,0.0036
3839.00,0.0037
3838.00,0.0036
3837.00,0.0036
3836.00,0.0036
3835.00,0.0036
3834.00,0.0036
3833.00,0.0036
3832.00,0.0036
3831.00,0.0035
3830.00,0.0035
3829.00,0.0036
3828.00,0.0035
3827.00,0.0034
3826.00,0.0033
3825.00,0.0033
3824.00,0.0035
3823.00,0.0037
3822.00,0.0037
3821.00,0.0035
3820.00,0.0035
3819.00,0.0035
3818.00,0.0036
3817.00,0.0036
3816.00,0.0035
3815.00,0.0035
3814.00,0.0036
3813.00,0.0037
3812.00,0.0036
3811.00,0.0035
3810.00,0.0034
3809.00,0.0034
3808.00,0.0034
3807.00,0.0033
3806.00,0.0034
3805.00,0.0035
3804.00,0.0037
3803.00,0.0038
3802.00,0.0037
3801.00,0.0036
3800.00,0.0036
3799.00,0.0037
3798.00,0.0037
3797.00,0.0036
3796.00,0.0035
3795.00,0.0035
3794.00,0.0035
3793.00,0.0035
3792.00,0.0035
3791.00,0.0035
3790.00,0.0035
3789.00,0.0035
3788.00,0.0035
3787.00,0.0036
3786.00,0.0036
3785.00,0.0037
3784.00,0.0037
3783.00,0.0037
3782.00,0.0037
3781.00,0.0037
3780.00,0.0036
3779.00,0.0035
3778.00,0.0035
3777.00,0.0035
3776.00,0.0035
3775.00,0.0035
3774.00,0.0035
3773.00,0.0035
3772.00,0.0035
3771.00,0.0035
3770.00,0.0034
3769.00,0.0034
3768.00,0.0035
3767.00,0.0036
3766.00,0.0036
3765.00,0.0036
3764.00,0.0036
3763.00,0.0036
3762.00,0.0037
3761.00,0.0036
3760.00,0.0035
3759.00,0.0034
3758.00,0.0033
3757.00,0.0032
3756.00,0.0031
3755.00,0.0031
3754.00,0.0030
3753.00,0.0029
3752.00,0.0028
3751.00,0.0029
3750.00,0.0031
3749.00,0.0032
3748.00,0.0034
3747.00,0.0037
3746.00,0.0038
3745.00,0.0036
3744.00,0.0033
3743.00,0.0033
3742.00,0.0033
3741.00,0.0033
3740.00,0.0034
3739.00,0.0035
3738.00,0.0037
3737.00,0.0038
3736.00,0.0038
3735.00,0.0038
3734.00,0.0038
3733.00,0.0037
3732.00,0.0035
3731.00,0.0034
3730.00,0.0034
3729.00,0.0034
3728.00,0.0034
3727.00,0.0034
3726.00,0.0034
3725.00,0.0034
3724.00,0.0034
3723.00,0.0034
3722.00,0.0034
3721.00,0.0035
3720.00,0.0035
3719.00,0.0035
3718.00,0.0034
3717.00,0.0033
3716.00,0.0033
3715.00,0.0033
3714.00,0.0033
3713.00,0.0034
3712.00,0.0034
3711.00,0.0035
3710.00,0.0034
3709.00,0.0034
3708.00,0.0034
3707.00,0.0034
3706.00,0.0035
3705.00,0.0036
3704.00,0.0036
3703.00,0.0035
3702.00,0.0034
3701.00,0.0034
3700.00,0.0035
3699.00,0.0035
3698.00,0.0035
3697.00,0.0034
3696.00,0.0033
3695.00,0.0033
3694.00,0.0032
3693.00,0.0032
3692.00,0.0032
3691.00,0.0033
3690.00,0.0035
3689.00,0.0036
3688.00,0.0036
3687.00,0.0035
3686.00,0.0035
3685.00,0.0034
3684.00,0.0034
3683.00,0.0033
3682.00,0.0032
3681.00,0.0031
3680.00,0.0030
3679.00,0.0029
3678.00,0.0030
3677.00,0.0030
3676.00,0.0029
3675.00,0.0029
3674.00,0.0029
3673.00,0.0031
3672.00,0.0032
3671.00,0.0033
3670.00,0.0034
3669.00,0.0035
3668.00,0.0036
3667.00,0.0035
3666.00,0.0035
3665.00,0.0034
3664.00,0.0034
3663.00,0.0034
3662.00,0.0034
3661.00,0.0035
3660.00,0.0036
3659.00,0.0037
3658.00,0.0038
3657.00,0.0038
3656.00,0.0037
3655.00,0.0038
3654.00,0.0039
3653.00,0.0041
3652.00,0.0041
3651.00,0.0040
3650.00,0.0039
3649.00,0.0040
3648.00,0.0041
3647.00,0.0041
3646.00,0.0040
3645.00,0.0040
3644.00,0.0039
3643.00,0.0039
3642.00,0.0039
3641.00,0.0038
3640.00,0.0038
3639.00,0.0038
3638.00,0.0038
3637.00,0.0039
3636.00,0.0039
3635.00,0.0040
3634.00,0.0040
3633.00,0.0041
3632.00,0.0042
3631.00,0.0043
3630.00,0.0043
3629.00,0.0043
3628.00,0.0044
3627.00,0.0044
3626.00,0.0043
3625.00,0.0042
3624.00,0.0041
3623.00,0.0041
3622.00,0.0042
3621.00,0.0043
3620.00,0.0044
3619.00,0.0045
3618.00,0.0046
3617.00,0.0047
3616.00,0.0048
3615.00,0.0048
3614.00,0.0047
3613.00,0.0046
3612.00,0.0046
3611.00,0.0047
3610.00,0.0048
3609.00,0.0049
3608.00,0.0049
3607.00,0.0049
3606.00,0.0048
3605.00,0.0047
3604.00,0.0046
3603.00,0.0046
3602.00,0.0047
3601.00,0.0048
3600.00,0.0049
3599.00,0.0049
3598.00,0.0049
3597.00,0.0049
3596.00,0.0049
3595.00,0.0049
3594.00,0.0049
3593.00,0.0048
3592.00,0.0048
3591.00,0.0048
3590.00,0.0049
3589.00,0.0050
3588.00,0.0050
3587.00,0.0051
3586.00,0.0052
3585.00,0.0052
3584.00,0.0052
3583.00,0.0051
3582.00,0.0051
3581.00,0.0050
3580.00,0.0050
3579.00,0.0050
3578.00,0.0050
3577.00,0.0050
3576.00,0.0051
3575.00,0.0051
3574.00,0.0051
3573.00,0.0052
3572.00,0.0052
3571.00,0.0052
3570.00,0.0053
3569.00,0.0053
3568.00,0.0054
3567.00,0.0055
3566.00,0.0055
3565.00,0.0055
3564.00,0.0054
3563.00,0.0053
3562.00,0.0053
3561.00,0.0053
3560.00,0.0053
3559.00,0.0054
3558.00,0.0054
3557.00,0.0055
3556.00,0.0056
3555.00,0.0056
3554.00,0.0056
3553.00,0.0056
3552.00,0.0056
3551.00,0.0057
3550.00,0.0058
3549.00,0.0059
3548.00,0.0059
3547.00,0.0059
3546.00,0.0060
3545.00,0.0060
3544.00,0.0060
3543.00,0.0059
3542.00,0.0059
3541.00,0.0058
3540.00,0.0058
3539.00,0.0057
3538.00,0.0056
3537.00,0.0056
3536.00,0.0056
3535.00,0.0057
3534.00,0.0058
3533.00,0.0059
3532.00,0.0060
3531.00,0.0060
3530.00,0.0059
3529.00,0.0058
3528.00,0.0058
3527.00,0.0058
3526.00,0.0058
3525.00,0.0060
3524.00,0.0061
3523.00,0.0061
3522.00,0.0061
3521.00,0.0061
3520.00,0.0059
3519.00,0.0058
3518.00,0.0057
3517.00,0.0056
3516.00,0.0055
3515.00,0.0056
3514.00,0.0057
3513.00,0.0059
3512.00,0.0060
3511.00,0.0061
3510.00,0.0061
3509.00,0.0061
3508.00,0.0060
3507.00,0.0060
3506.00,0.0060
3505.00,0.0060
3504.00,0.0061
3503.00,0.0062
3502.00,0.0062
3501.00,0.0062
3500.00,0.0062
3499.00,0.0062
3498.00,0.0062
3497.00,0.0062
3496.00,0.0062
3495.00,0.0062
3494.00,0.0062
3493.00,0.0062
3492.00,0.0062
3491.00,0.0061
3490.00,0.0061
3489.00,0.0060
3488.00,0.0060
3487.00,0.0061
3486.00,0.0062
3485.00,0.0062
3484.00,0.0062
3483.00,0.0062
3482.00,0.0062
3481.00,0.0062
3480.00,0.0062
3479.00,0.0062
3478.00,0.0062
3477.00,0.0062
3476.00,0.0063
3475.00,0.0063
3474.00,0.0064
3473.00,0.0064
3472.00,0.0064
3471.00,0.0064
3470.00,0.0065
3469.00,0.0065
3468.00,0.0065
3467.00,0.0065
3466.00,0.0066
3465.00,0.0067
3464.00,0.0066
3463.00,0.0065
3462.00,0.0064
3461.00,0.0063
3460.00,0.0064
3459.00,0.0065
3458.00,0.0066
3457.00,0.0066
3456.00,0.0066
3455.00,0.0065
3454.00,0.0064
3453.00,0.0064
3452.00,0.0064
3451.00,0.0065
3450.00,0.0066
3449.00,0.0066
3448.00,0.0067
3447.00,0.0066
3446.00,0.0066
3445.00,0.0066
3444.00,0.0066
3443.00,0.0066
3442.00,0.0066
3441.00,0.0065
3440.00,0.0065
3439.00,0.0064
3438.00,0.0064
3437.00,0.0065
3436.00,0.0065
3435.00,0.0064
3434.00,0.0064
3433.00,0.0065
3432.00,0.0065
3431.00,0.0066
3430.00,0.0066
3429.00,0.0066
3428.00,0.0066
3427.00,0.0066
3426.00,0.0066
3425.00,0.0067
3424.00,0.0068
3423.00,0.0069
3422.00,0.0069
3421.00,0.0069
3420.00,0.0069
3419.00,0.0068
3418.00,0.0068
3417.00,0.0068
3416.00,0.0067
3415.00,0.0066
3414.00,0.0066
3413.00,0.0066
3412.00,0.0067
3411.00,0.0067
3410.00,0.0068
3409.00,0.0068
3408.00,0.0068
3407.00,0.0069
3406.00,0.0068
3405.00,0.0068
3404.00,0.0067
3403.00,0.0067
3402.00,0.0067
3401.00,0.0067
3400.00,0.0068
3399.00,0.0069
3398.00,0.0069
3397.00,0.0069
3396.00,0.0069
3395.00,0.0069
3394.00,0.0068
3393.00,0.0069
3392.00,0.0069
3391.00,0.0070
3390.00,0.0070
3389.00,0.0071
3388.00,0.0070
3387.00,0.0070
3386.00,0.0069
3385.00,0.0068
3384.00,0.0069
3383.00,0.0069
3382.00,0.0069
3381.00,0.0070
3380.00,0.0070
3379.00,0.0071
3378.00,0.0070
3377.00,0.0070
3376.00,0.0069
3375.00,0.0069
3374.00,0.0069
3373.00,0.0069
3372.00,0.0068
3371.00,0.0068
3370.00,0.0068
3369.00,0.0068
3368.00,0.0069
3367.00,0.0069
3366.00,0.0069
3365.00,0.0069
3364.00,0.0069
3363.00,0.0069
3362.00,0.0070
3361.00,0.0071
3360.00,0.0071
3359.00,0.0071
3358.00,0.0071
3357.00,0.0070
3356.00,0.0070
3355.00,0.0070
3354.00,0.0070
3353.00,0.0070
3352.00,0.0071
3351.00,0.0071
3350.00,0.0071
3349.00,0.0071
3348.00,0.0072
3347.00,0.0071
3346.00,0.0071
3345.00,0.0070
3344.00,0.0070
3343.00,0.0069
3342.00,0.0069
3341.00,0.0070
3340.00,0.0070
3339.00,0.0071
3338.00,0.0071
3337.00,0.0071
3336.00,0.0071
3335.00,0.0070
3334.00,0.0070
3333.00,0.0070
3332.00,0.0069
3331.00,0.0069
3330.00,0.0068
3329.00,0.0067
3328.00,0.0067
3327.00,0.0068
3326.00,0.0069
3325.00,0.0070
3324.00,0.0071
3323.00,0.0071
3322.00,0.0071
3321.00,0.0071
3320.00,0.0070
3319.00,0.0070
3318.00,0.0070
3317.00,0.0069
3316.00,0.0069
3315.00,0.0069
3314.00,0.0069
3313.00,0.0069
3312.00,0.0069
3311.00,0.0069
3310.00,0.0069
3309.00,0.0070
3308.00,0.0071
3307.00,0.0072
3306.00,0.0071
3305.00,0.0071
3304.00,0.0070
3303.00,0.0070
3302.00,0.0070
3301.00,0.0070
3300.00,0.0070
3299.00,0.0070
3298.00,0.0070
3297.00,0.0070
3296.00,0.0070
3295.00,0.0071
3294.00,0.0071
3293.00,0.0071
3292.00,0.0071
3291.00,0.0070
3290.00,0.0070
3289.00,0.0070
3288.00,0.0070
3287.00,0.0070
3286.00,0.0070
3285.00,0.0071
3284.00,0.0071
3283.00,0.0072
3282.00,0.0071
3281.00,0.0071
3280.00,0.0071
3279.00,0.0071
3278.00,0.0071
3277.00,0.0071
3276.00,0.0071
3275.00,0.0071
3274.00,0.0071
3273.00,0.0071
3272.00,0.0071
3271.00,0.0072
3270.00,0.0072
3269.00,0.0072
3268.00,0.0073
3267.00,0.0072
3266.00,0.0072
3265.00,0.0071
3264.00,0.0070
3263.00,0.0069
3262.00,0.0069
3261.00,0.0069
3260.00,0.0070
3259.00,0.0070
3258.00,0.0070
3257.00,0.0070
3256.00,0.0069
3255.00,0.0069
3254.00,0.0069
3253.00,0.0069
3252.00,0.0070
3251.00,0.0070
3250.00,0.0070
3249.00,0.0070
3248.00,0.0070
3247.00,0.0071
3246.00,0.0071
3245.00,0.0071
3244.00,0.0071
3243.00,0.0070
3242.00,0.0070
3241.00,0.0070
3240.00,0.0070
3239.00,0.0070
3238.00,0.0071
3237.00,0.0072
3236.00,0.0073
3235.00,0.0073
3234.00,0.0073
3233.00,0.0073
3232.00,0.0073
3231.00,0.0072
3230.00,0.0071
3229.00,0.0070
3228.00,0.0070
3227.00,0.0070
3226.00,0.0070
3225.00,0.0070
3224.00,0.0070
3223.00,0.0070
3222.00,0.0070
3221.00,0.0070
3220.00,0.0070
3219.00,0.0069
3218.00,0.0069
3217.00,0.0069
3216.00,0.0070
3215.00,0.0070
3214.00,0.0071
3213.00,0.0070
3212.00,0.0070
3211.00,0.0069
3210.00,0.0068
3209.00,0.0068
3208.00,0.0068
3207.00,0.0069
3206.00,0.0069
3205.00,0.0070
3204.00,0.0071
3203.00,0.0071
3202.00,0.0071
3201.00,0.0071
3200.00,0.0070
3199.00,0.0070
3198.00,0.0070
3197.00,0.0070
3196.00,0.0070
3195.00,0.0070
3194.00,0.0070
3193.00,0.0069
3192.00,0.0069
3191.00,0.0069
3190.00,0.0068
3189.00,0.0068
3188.00,0.0068
3187.00,0.0067
3186.00,0.0067
3185.00,0.0067
3184.00,0.0068
3183.00,0.0068
3182.00,0.0069
3181.00,0.0069
3180.00,0.0069
3179.00,0.0068
3178.00,0.0067
3177.00,0.0066
3176.00,0.0065
3175.00,0.0066
3174.00,0.0066
3173.00,0.0067
3172.00,0.0067
3171.00,0.0067
3170.00,0.0066
3169.00,0.0066
3168.00,0.0066
3167.00,0.0066
3166.00,0.0067
3165.00,0.0068
3164.00,0.0069
3163.00,0.0069
3162.00,0.0069
3161.00,0.0068
3160.00,0.0067
3159.00,0.0065
3158.00,0.0064
3157.00,0.0064
3156.00,0.0064
3155.00,0.0065
3154.00,0.0066
3153.00,0.0067
3152.00,0.0067
3151.00,0.0067
3150.00,0.0066
3149.00,0.0065
3148.00,0.0065
3147.00,0.0065
3146.00,0.0065
3145.00,0.0065
3144.00,0.0065
3143.00,0.0065
3142.00,0.0065
3141.00,0.0065
3140.00,0.0065
3139.00,0.0065
3138.00,0.0065
3137.00,0.0066
3136.00,0.0066
3135.00,0.0066
3134.00,0.0066
3133.00,0.0065
3132.00,0.0065
3131.00,0.0065
3130.00,0.0065
3129.00,0.0065
3128.00,0.0064
3127.00,0.0065
3126.00,0.0065
3125.00,0.0065
3124.00,0.0065
3123.00,0.0065
3122.00,0.0065
3121.00,0.0064
3120.00,0.0064
3119.00,0.0064
3118.00,0.0064
3117.00,0.0064
3116.00,0.0064
3115.00,0.0064
3114.00,0.0063
3113.00,0.0063
3112.00,0.0063
3111.00,0.0063
3110.00,0.0062
3109.00,0.0062
3108.00,0.0063
3107.00,0.0063
3106.00,0.0064
3105.00,0.0064
3104.00,0.0064
3103.00,0.0063
3102.00,0.0062
3101.00,0.0061
3100.00,0.0061
3099.00,0.0061
3098.00,0.0061
3097.00,0.0061
3096.00,0.0062
3095.00,0.0063
3094.00,0.0064
3093.00,0.0064
3092.00,0.0064
3091.00,0.0063
3090.00,0.0063
3089.00,0.0062
3088.00,0.0061
3087.00,0.0061
3086.00,0.0061
3085.00,0.0062
3084.00,0.0062
3083.00,0.0062
3082.00,0.0062
3081.00,0.0062
3080.00,0.0063
3079.00,0.0063
3078.00,0.0062
3077.00,0.0062
3076.00,0.0062
3075.00,0.0062
3074.00,0.0063
3073.00,0.0063
3072.00,0.0063
3071.00,0.0063
3070.00,0.0062
3069.00,0.0062
3068.00,0.0062
3067.00,0.0062
3066.00,0.0062
3065.00,0.0062
3064.00,0.0061
3063.00,0.0060
3062.00,0.0060
3061.00,0.0060
3060.00,0.0060
3059.00,0.0060
3058.00,0.0060
3057.00,0.0061
3056.00,0.0061
3055.00,0.0061
3054.00,0.0060
3053.00,0.0060
3052.00,0.0060
3051.00,0.0060
3050.00,0.0061
3049.00,0.0062
3048.00,0.0062
3047.00,0.0062
3046.00,0.0062
3045.00,0.0062
3044.00,0.0061
3043.00,0.0060
3042.00,0.0059
3041.00,0.0058
3040.00,0.0058
3039.00,0.0058
3038.00,0.0059
3037.00,0.0060
3036.00,0.0060
3035.00,0.0061
3034.00,0.0061
3033.00,0.0060
3032.00,0.0060
3031.00,0.0060
3030.00,0.0059
3029.00,0.0058
3028.00,0.0058
3027.00,0.0057
3026.00,0.0057
3025.00,0.0057
3024.00,0.0057
3023.00,0.0058
3022.00,0.0058
3021.00,0.0058
3020.00,0.0058
3019.00,0.0057
3018.00,0.0056
3017.00,0.0056
3016.00,0.0056
3015.00,0.0055
3014.00,0.0055
3013.00,0.0055
3012.00,0.0055
3011.00,0.0055
3010.00,0.0054
3009.00,0.0053
3008.00,0.0052
3007.00,0.0051
3006.00,0.0050
3005.00,0.0050
3004.00,0.0050
3003.00,0.0049
3002.00,0.0048
3001.00,0.0047
3000.00,0.0046
2999.00,0.0045
2998.00,0.0044
2997.00,0.0043
2996.00,0.0042
2995.00,0.0042
2994.00,0.0042
2993.00,0.0042
2992.00,0.0041
2991.00,0.0040
2990.00,0.0040
2989.00,0.0039
2988.00,0.0039
2987.00,0.0038
2986.00,0.0036
2985.00,0.0033
2984.00,0.0030
2983.00,0.0028
2982.00,0.0027
2981.00,0.0027
2980.00,0.0028
2979.00,0.0030
2978.00,0.0032
2977.00,0.0033
2976.00,0.0034
2975.00,0.0035
2974.00,0.0035
2973.00,0.0034
2972.00,0.0034
2971.00,0.0034
2970.00,0.0035
2969.00,0.0036
2968.00,0.0038
2967.00,0.0038
2966.00,0.0039
2965.00,0.0039
2964.00,0.0039
2963.00,0.0040
2962.00,0.0041
2961.00,0.0042
2960.00,0.0042
2959.00,0.0042
2958.00,0.0042
2957.00,0.0042
2956.00,0.0042
2955.00,0.0043
2954.00,0.0043
2953.00,0.0044
2952.00,0.0045
2951.00,0.0045
2950.00,0.0046
2949.00,0.0046
2948.00,0.0046
2947.00,0.0046
2946.00,0.0046
2945.00,0.0046
2944.00,0.0046
2943.00,0.0047
2942.00,0.0048
2941.00,0.0048
2940.00,0.0048
2939.00,0.0047
2938.00,0.0047
2937.00,0.0047
2936.00,0.0048
2935.00,0.0048
2934.00,0.0048
2933.00,0.0048
2932.00,0.0048
2931.00,0.0048
2930.00,0.0048
2929.00,0.0049
2928.00,0.0049
2927.00,0.0048
2926.00,0.0048
2925.00,0.0047
2924.00,0.0047
2923.00,0.0046
2922.00,0.0046
2921.00,0.0046
2920.00,0.0046
2919.00,0.0046
2918.00,0.0046
2917.00,0.0045
2916.00,0.0045
2915.00,0.0045
2914.00,0.0045
2913.00,0.0045
2912.00,0.0045
2911.00,0.0045
2910.00,0.0045
2909.00,0.0045
2908.00,0.0045
2907.00,0.0044
2906.00,0.0045
2905.00,0.0045
2904.00,0.0044
2903.00,0.0044
2902.00,0.0044
2901.00,0.0044
2900.00,0.0044
2899.00,0.0044
2898.00,0.0044
2897.00,0.0044
2896.00,0.0044
2895.00,0.0044
2894.00,0.0044
2893.00,0.0044
2892.00,0.0044
2891.00,0.0044
2890.00,0.0044
2889.00,0.0044
2888.00,0.0045
2887.00,0.0045
2886.00,0.0045
2885.00,0.0044
2884.00,0.0043
2883.00,0.0043
2882.00,0.0043
2881.00,0.0043
2880.00,0.0044
2879.00,0.0044
2878.00,0.0044
2877.00,0.0045
2876.00,0.0045
2875.00,0.0045
2874.00,0.0045
2873.00,0.0044
2872.00,0.0044
2871.00,0.0044
2870.00,0.0044
2869.00,0.0045
2868.00,0.0044
2867.00,0.0044
2866.00,0.0044
2865.00,0.0044
2864.00,0.0045
2863.00,0.0045
2862.00,0.0046
2861.00,0.0046
2860.00,0.0047
2859.00,0.0048
2858.00,0.0049
2857.00,0.0049
2856.00,0.0049
2855.00,0.0048
2854.00,0.0047
2853.00,0.0047
2852.00,0.0047
2851.00,0.0047
2850.00,0.0048
2849.00,0.0048
2848.00,0.0048
2847.00,0.0048
2846.00,0.0048
2845.00,0.0048
2844.00,0.0048
2843.00,0.0048
2842.00,0.0047
2841.00,0.0047
2840.00,0.0046
2839.00,0.0046
2838.00,0.0045
2837.00,0.0046
2836.00,0.0047
2835.00,0.0047
2834.00,0.0048
2833.00,0.0047
2832.00,0.0047
2831.00,0.0046
2830.00,0.0046
2829.00,0.0047
2828.00,0.0047
2827.00,0.0047
2826.00,0.0047
2825.00,0.0047
2824.00,0.0047
2823.00,0.0047
2822.00,0.0047
2821.00,0.0047
2820.00,0.0046
2819.00,0.0046
2818.00,0.0046
2817.00,0.0046
2816.00,0.0046
2815.00,0.0046
2814.00,0.0046
2813.00,0.0046
2812.00,0.0045
2811.00,0.0045
2810.00,0.0045
2809.00,0.0045
2808.00,0.0045
2807.00,0.0045
2806.00,0.0045
2805.00,0.0046
2804.00,0.0046
2803.00,0.0046
2802.00,0.0046
2801.00,0.0046
2800.00,0.0046
2799.00,0.0046
2798.00,0.0046
2797.00,0.0046
2796.00,0.0046
2795.00,0.0046
2794.00,0.0046
2793.00,0.0046
2792.00,0.0046
2791.00,0.0046
2790.00,0.0046
2789.00,0.0046
2788.00,0.0046
2787.00,0.0045
2786.00,0.0045
2785.00,0.0045
2784.00,0.0045
2783.00,0.0045
2782.00,0.0044
2781.00,0.0043
2780.00,0.0043
2779.00,0.0043
2778.00,0.0043
2777.00,0.0044
2776.00,0.0044
2775.00,0.0044
2774.00,0.0045
2773.00,0.0044
2772.00,0.0044
2771.00,0.0044
2770.00,0.0043
2769.00,0.0042
2768.00,0.0042
2767.00,0.0042
2766.00,0.0042
2765.00,0.0042
2764.00,0.0042
2763.00,0.0042
2762.00,0.0042
2761.00,0.0043
2760.00,0.0043
2759.00,0.0043
2758.00,0.0043
2757.00,0.0042
2756.00,0.0042
2755.00,0.0042
2754.00,0.0042
2753.00,0.0042
2752.00,0.0042
2751.00,0.0043
2750.00,0.0043
2749.00,0.0043
2748.00,0.0043
2747.00,0.0043
2746.00,0.0043
2745.00,0.0043
2744.00,0.0043
2743.00,0.0043
2742.00,0.0043
2741.00,0.0044
2740.00,0.0043
2739.00,0.0043
2738.00,0.0042
2737.00,0.0042
2736.00,0.0042
2735.00,0.0042
2734.00,0.0043
2733.00,0.0043
2732.00,0.0043
2731.00,0.0043
2730.00,0.0043
2729.00,0.0042
2728.00,0.0042
2727.00,0.0042
2726.00,0.0042
2725.00,0.0042
2724.00,0.0042
2723.00,0.0042
2722.00,0.0041
2721.00,0.0041
2720.00,0.0040
2719.00,0.0041
2718.00,0.0041
2717.00,0.0042
2716.00,0.0042
2715.00,0.0042
2714.00,0.0042
2713.00,0.0042
2712.00,0.0042
2711.00,0.0041
2710.00,0.0041
2709.00,0.0041
2708.00,0.0041
2707.00,0.0041
2706.00,0.0041
2705.00,0.0041
2704.00,0.0041
2703.00,0.0041
2702.00,0.0041
2701.00,0.0041
2700.00,0.0042
2699.00,0.0042
2698.00,0.0042
2697.00,0.0042
2696.00,0.0041
2695.00,0.0041
2694.00,0.0041
2693.00,0.0041
2692.00,0.0041
2691.00,0.0041
2690.00,0.0040
2689.00,0.0040
2688.00,0.0040
2687.00,0.0041
2686.00,0.0041
2685.00,0.0041
2684.00,0.0041
2683.00,0.0041
2682.00,0.0041
2681.00,0.0040
2680.00,0.0040
2679.00,0.0040
2678.00,0.0039
2677.00,0.0039
2676.00,0.0039
2675.00,0.0039
2674.00,0.0039
2673.00,0.0040
2672.00,0.0040
2671.00,0.0040
2670.00,0.0039
2669.00,0.0039
2668.00,0.0039
2667.00,0.0039
2666.00,0.0040
2665.00,0.0040
2664.00,0.0040
2663.00,0.0041
2662.00,0.0041
2661.00,0.0041
2660.00,0.0040
2659.00,0.0040
2658.00,0.0040
2657.00,0.0040
2656.00,0.0040
2655.00,0.0040
2654.00,0.0040
2653.00,0.0040
2652.00,0.0040
2651.00,0.0040
2650.00,0.0040
2649.00,0.0040
2648.00,0.0040
2647.00,0.0039
2646.00,0.0039
2645.00,0.0039
2644.00,0.0040
2643.00,0.0040
2642.00,0.0040
2641.00,0.0040
2640.00,0.0040
2639.00,0.0040
2638.00,0.0040
2637.00,0.0040
2636.00,0.0040
2635.00,0.0040
2634.00,0.0040
2633.00,0.0041
2632.00,0.0041
2631.00,0.0041
2630.00,0.0040
2629.00,0.0040
2628.00,0.0039
2627.00,0.0039
2626.00,0.0039
2625.00,0.0040
2624.00,0.0041
2623.00,0.0041
2622.00,0.0041
2621.00,0.0041
2620.00,0.0041
2619.00,0.0041
2618.00,0.0041
2617.00,0.0041
2616.00,0.0040
2615.00,0.0040
2614.00,0.0039
2613.00,0.0040
2612.00,0.0041
2611.00,0.0041
2610.00,0.0041
2609.00,0.0040
2608.00,0.0039
2607.00,0.0039
2606.00,0.0040
2605.00,0.0040
2604.00,0.0041
2603.00,0.0041
2602.00,0.0041
2601.00,0.0041
2600.00,0.0041
2599.00,0.0041
2598.00,0.0040
2597.00,0.0040
2596.00,0.0039
2595.00,0.0039
2594.00,0.0039
2593.00,0.0040
2592.00,0.0040
2591.00,0.0041
2590.00,0.0041
2589.00,0.0041
2588.00,0.0041
2587.00,0.0041
2586.00,0.0040
2585.00,0.0040
2584.00,0.0039
2583.00,0.0039
2582.00,0.0039
2581.00,0.0040
2580.00,0.0040
2579.00,0.0040
2578.00,0.0040
2577.00,0.0039
2576.00,0.0039
2575.00,0.0038
2574.00,0.0038
2573.00,0.0039
2572.00,0.0039
2571.00,0.0039
2570.00,0.0039
2569.00,0.0038
2568.00,0.0039
2567.00,0.0040
2566.00,0.0041
2565.00,0.0041
2564.00,0.0041
2563.00,0.0041
2562.00,0.0041
2561.00,0.0041
2560.00,0.0042
2559.00,0.0042
2558.00,0.0042
2557.00,0.0042
2556.00,0.0042
2555.00,0.0041
2554.00,0.0041
2553.00,0.0040
2552.00,0.0039
2551.00,0.0038
2550.00,0.0038
2549.00,0.0037
2548.00,0.0037
2547.00,0.0036
2546.00,0.0037
2545.00,0.0037
2544.00,0.0038
2543.00,0.0038
2542.00,0.0037
2541.00,0.0037
2540.00,0.0036
2539.00,0.0035
2538.00,0.0035
2537.00,0.0034
2536.00,0.0035
2535.00,0.0035
2534.00,0.0036
2533.00,0.0037
2532.00,0.0037
2531.00,0.0037
2530.00,0.0036
2529.00,0.0036
2528.00,0.0036
2527.00,0.0035
2526.00,0.0035
2525.00,0.0035
2524.00,0.0035
2523.00,0.0035
2522.00,0.0036
2521.00,0.0036
2520.00,0.0036
2519.00,0.0037
2518.00,0.0038
2517.00,0.0039
2516.00,0.0040
2515.00,0.0040
2514.00,0.0039
2513.00,0.0038
2512.00,0.0037
2511.00,0.0037
2510.00,0.0038
2509.00,0.0038
2508.00,0.0039
2507.00,0.0039
2506.00,0.0039
2505.00,0.0038
2504.00,0.0038
2503.00,0.0037
2502.00,0.0037
2501.00,0.0037
2500.00,0.0038
2499.00,0.0038
2498.00,0.0038
2497.00,0.0038
2496.00,0.0038
2495.00,0.0038
2494.00,0.0039
2493.00,0.0039
2492.00,0.0039
2491.00,0.0039
2490.00,0.0039
2489.00,0.0039
2488.00,0.0039
2487.00,0.0039
2486.00,0.0038
2485.00,0.0038
2484.00,0.0037
2483.00,0.0037
2482.00,0.0038
2481.00,0.0039
2480.00,0.0040
2479.00,0.0040
2478.00,0.0039
2477.00,0.0038
2476.00,0.0038
2475.00,0.0038
2474.00,0.0038
2473.00,0.0039
2472.00,0.0039
2471.00,0.0039
2470.00,0.0039
2469.00,0.0038
2468.00,0.0037
2467.00,0.0036
2466.00,0.0036
2465.00,0.0036
2464.00,0.0036
2463.00,0.0036
2462.00,0.0036
2461.00,0.0036
2460.00,0.0036
2459.00,0.0036
2458.00,0.0037
2457.00,0.0037
2456.00,0.0038
2455.00,0.0038
2454.00,0.0039
2453.00,0.0040
2452.00,0.0041
2451.00,0.0040
2450.00,0.0039
2449.00,0.0038
2448.00,0.0038
2447.00,0.0038
2446.00,0.0038
2445.00,0.0037
2444.00,0.0037
2443.00,0.0037
2442.00,0.0037
2441.00,0.0037
2440.00,0.0037
2439.00,0.0037
2438.00,0.0037
2437.00,0.0037
2436.00,0.0037
2435.00,0.0037
2434.00,0.0036
2433.00,0.0036
2432.00,0.0036
2431.00,0.0036
2430.00,0.0037
2429.00,0.0037
2428.00,0.0037
2427.00,0.0037
2426.00,0.0037
2425.00,0.0036
2424.00,0.0036
2423.00,0.0036
2422.00,0.0036
2421.00,0.0036
2420.00,0.0036
2419.00,0.0036
2418.00,0.0036
2417.00,0.0036
2416.00,0.0035
2415.00,0.0035
2414.00,0.0035
2413.00,0.0036
2412.00,0.0036
2411.00,0.0036
2410.00,0.0036
2409.00,0.0036
2408.00,0.0037
2407.00,0.0037
2406.00,0.0037
2405.00,0.0037
2404.00,0.0036
2403.00,0.0036
2402.00,0.0036
2401.00,0.0035
2400.00,0.0036
2399.00,0.0036
2398.00,0.0036
2397.00,0.0036
2396.00,0.0035
2395.00,0.0035
2394.00,0.0034
2393.00,0.0034
2392.00,0.0034
2391.00,0.0034
2390.00,0.0033
2389.00,0.0033
2388.00,0.0033
2387.00,0.0032
2386.00,0.0032
2385.00,0.0032
2384.00,0.0031
2383.00,0.0031
2382.00,0.0031
2381.00,0.0031
2380.00,0.0032
2379.00,0.0032
2378.00,0.0032
2377.00,0.0032
2376.00,0.0031
2375.00,0.0031
2374.00,0.0031
2373.00,0.0032
2372.00,0.0032
2371.00,0.0031
2370.00,0.0029
2369.00,0.0025
2368.00,0.0022
2367.00,0.0022
2366.00,0.0024
2365.00,0.0028
2364.00,0.0030
2363.00,0.0030
2362.00,0.0028
2361.00,0.0028
2360.00,0.0028
2359.00,0.0029
2358.00,0.0029
2357.00,0.0029
2356.00,0.0029
2355.00,0.0028
2354.00,0.0027
2353.00,0.0027
2352.00,0.0027
2351.00,0.0027
2350.00,0.0028
2349.00,0.0028
2348.00,0.0028
2347.00,0.0027
2346.00,0.0026
2345.00,0.0026
2344.00,0.0027
2343.00,0.0028
2342.00,0.0030
2341.00,0.0031
2340.00,0.0031
2339.00,0.0030
2338.00,0.0027
2337.00,0.0025
2336.00,0.0025
2335.00,0.0026
2334.00,0.0028
2333.00,0.0029
2332.00,0.0030
2331.00,0.0030
2330.00,0.0029
2329.00,0.0028
2328.00,0.0028
2327.00,0.0028
2326.00,0.0028
2325.00,0.0028
2324.00,0.0028
2323.00,0.0028
2322.00,0.0028
2321.00,0.0029
2320.00,0.0028
2319.00,0.0027
2318.00,0.0026
2317.00,0.0026
2316.00,0.0027
2315.00,0.0027
2314.00,0.0028
2313.00,0.0028
2312.00,0.0029
2311.00,0.0029
2310.00,0.0030
2309.00,0.0031
2308.00,0.0032
2307.00,0.0032
2306.00,0.0031
2305.00,0.0031
2304.00,0.0031
2303.00,0.0030
2302.00,0.0029
2301.00,0.0029
2300.00,0.0029
2299.00,0.0030
2298.00,0.0030
2297.00,0.0030
2296.00,0.0030
2295.00,0.0030
2294.00,0.0031
2293.00,0.0033
2292.00,0.0034
2291.00,0.0035
2290.00,0.0035
2289.00,0.0035
2288.00,0.0035
2287.00,0.0036
2286.00,0.0037
2285.00,0.0038
2284.00,0.0039
2283.00,0.0040
2282.00,0.0040
2281.00,0.0039
2280.00,0.0038
2279.00,0.0038
2278.00,0.0038
2277.00,0.0038
2276.00,0.0037
2275.00,0.0036
2274.00,0.0034
2273.00,0.0034
2272.00,0.0035
2271.00,0.0035
2270.00,0.0035
2269.00,0.0035
2268.00,0.0034
2267.00,0.0034
2266.00,0.0034
2265.00,0.0034
2264.00,0.0035
2263.00,0.0035
2262.00,0.0036
2261.00,0.0037
2260.00,0.0038
2259.00,0.0037
2258.00,0.0035
2257.00,0.0033
2256.00,0.0032
2255.00,0.0032
2254.00,0.0033
2253.00,0.0034
2252.00,0.0035
2251.00,0.0035
2250.00,0.0035
2249.00,0.0034
2248.00,0.0034
2247.00,0.0034
2246.00,0.0036
2245.00,0.0037
2244.00,0.0037
2243.00,0.0037
2242.00,0.0036
2241.00,0.0035
2240.00,0.0034
2239.00,0.0033
2238.00,0.0033
2237.00,0.0032
2236.00,0.0032
2235.00,0.0033
2234.00,0.0034
2233.00,0.0035
2232.00,0.0035
2231.00,0.0033
2230.00,0.0031
2229.00,0.0030
2228.00,0.0031
2227.00,0.0032
2226.00,0.0033
2225.00,0.0033
2224.00,0.0032
2223.00,0.0031
2222.00,0.0030
2221.00,0.0030
2220.00,0.0031
2219.00,0.0032
2218.00,0.0033
2217.00,0.0034
2216.00,0.0034
2215.00,0.0036
2214.00,0.0037
2213.00,0.0038
2212.00,0.0037
2211.00,0.0036
2210.00,0.0035
2209.00,0.0034
2208.00,0.0034
2207.00,0.0034
2206.00,0.0034
2205.00,0.0033
2204.00,0.0032
2203.00,0.0031
2202.00,0.0031
2201.00,0.0030
2200.00,0.0029
2199.00,0.0029
2198.00,0.0029
2197.00,0.0030
2196.00,0.0029
2195.00,0.0028
2194.00,0.0026
2193.00,0.0026
2192.00,0.0026
2191.00,0.0025
2190.00,0.0024
2189.00,0.0023
2188.00,0.0025
2187.00,0.0029
2186.00,0.0034
2185.00,0.0037
2184.00,0.0036
2183.00,0.0033
2182.00,0.0032
2181.00,0.0032
2180.00,0.0033
2179.00,0.0035
2178.00,0.0036
2177.00,0.0037
2176.00,0.0037
2175.00,0.0036
2174.00,0.0035
2173.00,0.0034
2172.00,0.0034
2171.00,0.0036
2170.00,0.0038
2169.00,0.0039
2168.00,0.0038
2167.00,0.0036
2166.00,0.0036
2165.00,0.0037
2164.00,0.0039
2163.00,0.0042
2162.00,0.0042
2161.00,0.0040
2160.00,0.0036
2159.00,0.0031
2158.00,0.0027
2157.00,0.0026
2156.00,0.0026
2155.00,0.0027
2154.00,0.0029
2153.00,0.0031
2152.00,0.0030
2151.00,0.0027
2150.00,0.0024
2149.00,0.0023
2148.00,0.0025
2147.00,0.0028
2146.00,0.0031
2145.00,0.0033
2144.00,0.0033
2143.00,0.0034
2142.00,0.0035
2141.00,0.0036
2140.00,0.0037
2139.00,0.0035
2138.00,0.0033
2137.00,0.0031
2136.00,0.0028
2135.00,0.0027
2134.00,0.0027
2133.00,0.0028
2132.00,0.0030
2131.00,0.0031
2130.00,0.0032
2129.00,0.0033
2128.00,0.0034
2127.00,0.0034
2126.00,0.0032
2125.00,0.0031
2124.00,0.0030
2123.00,0.0029
2122.00,0.0029
2121.00,0.0029
2120.00,0.0028
2119.00,0.0028
2118.00,0.0028
2117.00,0.0028
2116.00,0.0028
2115.00,0.0028
2114.00,0.0026
2113.00,0.0026
2112.00,0.0026
2111.00,0.0027
2110.00,0.0029
2109.00,0.0031
2108.00,0.0032
2107.00,0.0033
2106.00,0.0033
2105.00,0.0033
2104.00,0.0033
2103.00,0.0033
2102.00,0.0033
2101.00,0.0032
2100.00,0.0030
2099.00,0.0028
2098.00,0.0027
2097.00,0.0027
2096.00,0.0027
2095.00,0.0028
2094.00,0.0028
2093.00,0.0028
2092.00,0.0028
2091.00,0.0027
2090.00,0.0026
2089.00,0.0026
2088.00,0.0027
2087.00,0.0028
2086.00,0.0030
2085.00,0.0032
2084.00,0.0033
2083.00,0.0032
2082.00,0.0031
2081.00,0.0031
2080.00,0.0030
2079.00,0.0031
2078.00,0.0031
2077.00,0.0032
2076.00,0.0032
2075.00,0.0032
2074.00,0.0032
2073.00,0.0033
2072.00,0.0034
2071.00,0.0035
2070.00,0.0035
2069.00,0.0034
2068.00,0.0031
2067.00,0.0029
2066.00,0.0029
2065.00,0.0030
2064.00,0.0031
2063.00,0.0033
2062.00,0.0034
2061.00,0.0034
2060.00,0.0033
2059.00,0.0032
2058.00,0.0032
2057.00,0.0032
2056.00,0.0032
2055.00,0.0032
2054.00,0.0032
2053.00,0.0033
2052.00,0.0034
2051.00,0.0033
2050.00,0.0030
2049.00,0.0027
2048.00,0.0026
2047.00,0.0026
2046.00,0.0027
2045.00,0.0029
2044.00,0.0032
2043.00,0.0035
2042.00,0.0036
2041.00,0.0035
2040.00,0.0033
2039.00,0.0031
2038.00,0.0031
2037.00,0.0033
2036.00,0.0034
2035.00,0.0034
2034.00,0.0033
2033.00,0.0033
2032.00,0.0036
2031.00,0.0038
2030.00,0.0038
2029.00,0.0036
2028.00,0.0034
2027.00,0.0033
2026.00,0.0032
2025.00,0.0030
2024.00,0.0026
2023.00,0.0023
2022.00,0.0021
2021.00,0.0020
2020.00,0.0019
2019.00,0.0017
2018.00,0.0016
2017.00,0.0017
2016.00,0.0019
2015.00,0.0022
2014.00,0.0025
2013.00,0.0026
2012.00,0.0025
2011.00,0.0024
2010.00,0.0024
2009.00,0.0025
2008.00,0.0026
2007.00,0.0027
2006.00,0.0026
2005.00,0.0024
2004.00,0.0023
2003.00,0.0025
2002.00,0.0029
2001.00,0.0033
2000.00,0.0035
1999.00,0.0035
1998.00,0.0033
1997.00,0.0033
1996.00,0.0034
1995.00,0.0035
1994.00,0.0037
1993.00,0.0038
1992.00,0.0038
1991.00,0.0036
1990.00,0.0033
1989.00,0.0031
1988.00,0.0029
1987.00,0.0029
1986.00,0.0029
1985.00,0.0030
1984.00,0.0031
1983.00,0.0032
1982.00,0.0033
1981.00,0.0032
1980.00,0.0029
1979.00,0.0023
1978.00,0.0018
1977.00,0.0015
1976.00,0.0016
1975.00,0.0020
1974.00,0.0025
1973.00,0.0028
1972.00,0.0028
1971.00,0.0027
1970.00,0.0027
1969.00,0.0029
1968.00,0.0030
1967.00,0.0029
1966.00,0.0026
1965.00,0.0025
1964.00,0.0026
1963.00,0.0027
1962.00,0.0028
1961.00,0.0028
1960.00,0.0030
1959.00,0.0031
1958.00,0.0032
1957.00,0.0032
1956.00,0.0031
1955.00,0.0030
1954.00,0.0030
1953.00,0.0030
1952.00,0.0029
1951.00,0.0028
1950.00,0.0026
1949.00,0.0024
1948.00,0.0024
1947.00,0.0026
1946.00,0.0027
1945.00,0.0026
1944.00,0.0024
1943.00,0.0022
1942.00,0.0021
1941.00,0.0021
1940.00,0.0021
1939.00,0.0021
1938.00,0.0020
1937.00,0.0020
1936.00,0.0020
1935.00,0.0019
1934.00,0.0017
1933.00,0.0017
1932.00,0.0018
1931.00,0.0020
1930.00,0.0023
1929.00,0.0026
1928.00,0.0029
1927.00,0.0030
1926.00,0.0030
1925.00,0.0030
1924.00,0.0028
1923.00,0.0027
1922.00,0.0026
1921.00,0.0026
1920.00,0.0025
1919.00,0.0023
1918.00,0.0021
1917.00,0.0021
1916.00,0.0022
1915.00,0.0023
1914.00,0.0025
1913.00,0.0026
1912.00,0.0027
1911.00,0.0026
1910.00,0.0025
1909.00,0.0024
1908.00,0.0022
1907.00,0.0022
1906.00,0.0022
1905.00,0.0023
1904.00,0.0025
1903.00,0.0026
1902.00,0.0026
1901.00,0.0025
1900.00,0.0025
1899.00,0.0025
1898.00,0.0025
1897.00,0.0025
1896.00,0.0024
1895.00,0.0022
1894.00,0.0022
1893.00,0.0022
1892.00,0.0023
1891.00,0.0023
1890.00,0.0023
1889.00,0.0022
1888.00,0.0022
1887.00,0.0021
1886.00,0.0022
1885.00,0.0022
1884.00,0.0024
1883.00,0.0024
1882.00,0.0025
1881.00,0.0024
1880.00,0.0024
1879.00,0.0023
1878.00,0.0022
1877.00,0.0021
1876.00,0.0022
1875.00,0.0022
1874.00,0.0024
1873.00,0.0025
1872.00,0.0026
1871.00,0.0026
1870.00,0.0026
1869.00,0.0026
1868.00,0.0025
1867.00,0.0024
1866.00,0.0023
1865.00,0.0022
1864.00,0.0021
1863.00,0.0021
1862.00,0.0020
1861.00,0.0020
1860.00,0.0020
1859.00,0.0021
1858.00,0.0022
1857.00,0.0023
1856.00,0.0023
1855.00,0.0023
1854.00,0.0023
1853.00,0.0022
1852.00,0.0022
1851.00,0.0022
1850.00,0.0022
1849.00,0.0022
1848.00,0.0022
1847.00,0.0022
1846.00,0.0021
1845.00,0.0021
1844.00,0.0021
1843.00,0.0021
1842.00,0.0022
1841.00,0.0023
1840.00,0.0023
1839.00,0.0023
1838.00,0.0023
1837.00,0.0022
1836.00,0.0022
1835.00,0.0022
1834.00,0.0022
1833.00,0.0023
1832.00,0.0023
1831.00,0.0024
1830.00,0.0024
1829.00,0.0023
1828.00,0.0022
1827.00,0.0022
1826.00,0.0023
1825.00,0.0023
1824.00,0.0022
1823.00,0.0022
1822.00,0.0022
1821.00,0.0021
1820.00,0.0021
1819.00,0.0021
1818.00,0.0020
1817.00,0.0020
1816.00,0.0020
1815.00,0.0021
1814.00,0.0021
1813.00,0.0022
1812.00,0.0022
1811.00,0.0022
1810.00,0.0022
1809.00,0.0022
1808.00,0.0022
1807.00,0.0022
1806.00,0.0022
1805.00,0.0022
1804.00,0.0022
1803.00,0.0021
1802.00,0.0021
1801.00,0.0021
1800.00,0.0021
1799.00,0.0021
1798.00,0.0022
1797.00,0.0022
1796.00,0.0022
1795.00,0.0022
1794.00,0.0021
1793.00,0.0020
1792.00,0.0021
1791.00,0.0021
1790.00,0.0021
1789.00,0.0020
1788.00,0.0020
1787.00,0.0021
1786.00,0.0021
1785.00,0.0022
1784.00,0.0022
1783.00,0.0023
1782.00,0.0023
1781.00,0.0023
1780.00,0.0022
1779.00,0.0022
1778.00,0.0022
1777.00,0.0022
1776.00,0.0022
1775.00,0.0023
1774.00,0.0022
1773.00,0.0022
1772.00,0.0021
1771.00,0.0021
1770.00,0.0021
1769.00,0.0022
1768.00,0.0022
1767.00,0.0022
1766.00,0.0022
1765.00,0.0022
1764.00,0.0022
1763.00,0.0022
1762.00,0.0021
1761.00,0.0020
1760.00,0.0020
1759.00,0.0021
1758.00,0.0021
1757.00,0.0021
1756.00,0.0022
1755.00,0.0024
1754.00,0.0025
1753.00,0.0025
1752.00,0.0023
1751.00,0.0022
1750.00,0.0021
1749.00,0.0021
1748.00,0.0022
1747.00,0.0022
1746.00,0.0022
1745.00,0.0023
1744.00,0.0023
1743.00,0.0024
1742.00,0.0024
1741.00,0.0024
1740.00,0.0025
1739.00,0.0025
1738.00,0.0025
1737.00,0.0025
1736.00,0.0025
1735.00,0.0025
1734.00,0.0024
1733.00,0.0024
1732.00,0.0024
1731.00,0.0025
1730.00,0.0025
1729.00,0.0026
1728.00,0.0026
1727.00,0.0027
1726.00,0.0028
1725.00,0.0028
1724.00,0.0029
1723.00,0.0029
1722.00,0.0029
1721.00,0.0028
1720.00,0.0028
1719.00,0.0027
1718.00,0.0025
1717.00,0.0025
1716.00,0.0026
1715.00,0.0027
1714.00,0.0028
1713.00,0.0029
1712.00,0.0030
1711.00,0.0031
1710.00,0.0032
1709.00,0.0032
1708.00,0.0033
1707.00,0.0032
1706.00,0.0032
1705.00,0.0031
1704.00,0.0031
1703.00,0.0031
1702.00,0.0032
1701.00,0.0031
1700.00,0.0030
1699.00,0.0029
1698.00,0.0030
1697.00,0.0032
1696.00,0.0033
1695.00,0.0033
1694.00,0.0033
1693.00,0.0034
1692.00,0.0034
1691.00,0.0035
1690.00,0.0035
1689.00,0.0035
1688.00,0.0035
1687.00,0.0036
1686.00,0.0036
1685.00,0.0036
1684.00,0.0036
1683.00,0.0036
1682.00,0.0036
1681.00,0.0036
1680.00,0.0035
1679.00,0.0036
1678.00,0.0036
1677.00,0.0037
1676.00,0.0038
1675.00,0.0038
1674.00,0.0038
1673.00,0.0038
1672.00,0.0038
1671.00,0.0038
1670.00,0.0039
1669.00,0.0040
1668.00,0.0041
1667.00,0.0041
1666.00,0.0041
1665.00,0.0041
1664.00,0.0041
1663.00,0.0040
1662.00,0.0040
1661.00,0.0040
1660.00,0.0041
1659.00,0.0043
1658.00,0.0044
1657.00,0.0045
1656.00,0.0045
1655.00,0.0045
1654.00,0.0044
1653.00,0.0046
1652.00,0.0047
1651.00,0.0047
1650.00,0.0047
1649.00,0.0048
1648.00,0.0047
1647.00,0.0047
1646.00,0.0047
1645.00,0.0048
1644.00,0.0048
1643.00,0.0049
1642.00,0.0049
1641.00,0.0049
1640.00,0.0049
1639.00,0.0050
1638.00,0.0051
1637.00,0.0052
1636.00,0.0053
1635.00,0.0054
1634.00,0.0053
1633.00,0.0052
1632.00,0.0050
1631.00,0.0049
1630.00,0.0049
1629.00,0.0049
1628.00,0.0049
1627.00,0.0049
1626.00,0.0050
1625.00,0.0052
1624.00,0.0053
1623.00,0.0054
1622.00,0.0055
1621.00,0.0054
1620.00,0.0054
1619.00,0.0054
1618.00,0.0053
1617.00,0.0052
1616.00,0.0052
1615.00,0.0052
1614.00,0.0052
1613.00,0.0052
1612.00,0.0053
1611.00,0.0053
1610.00,0.0052
1609.00,0.0052
1608.00,0.0052
1607.00,0.0052
1606.00,0.0053
1605.00,0.0054
1604.00,0.0054
1603.00,0.0053
1602.00,0.0052
1601.00,0.0050
1600.00,0.0049
1599.00,0.0050
1598.00,0.0050
1597.00,0.0052
1596.00,0.0053
1595.00,0.0053
1594.00,0.0053
1593.00,0.0053
1592.00,0.0052
1591.00,0.0052
1590.00,0.0051
1589.00,0.0051
1588.00,0.0052
1587.00,0.0052
1586.00,0.0052
1585.00,0.0052
1584.00,0.0052
1583.00,0.0051
1582.00,0.0051
1581.00,0.0051
1580.00,0.0052
1579.00,0.0053
1578.00,0.0054
1577.00,0.0055
1576.00,0.0053
1575.00,0.0051
1574.00,0.0049
1573.00,0.0048
1572.00,0.0047
1571.00,0.0047
1570.00,0.0048
1569.00,0.0048
1568.00,0.0048
1567.00,0.0048
1566.00,0.0048
1565.00,0.0048
1564.00,0.0047
1563.00,0.0046
1562.00,0.0046
1561.00,0.0047
1560.00,0.0047
1559.00,0.0046
1558.00,0.0045
1557.00,0.0043
1556.00,0.0042
1555.00,0.0042
1554.00,0.0043
1553.00,0.0044
1552.00,0.0045
1551.00,0.0045
1550.00,0.0044
1549.00,0.0042
1548.00,0.0041
1547.00,0.0040
1546.00,0.0039
1545.00,0.0039
1544.00,0.0038
1543.00,0.0038
1542.00,0.0037
1541.00,0.0037
1540.00,0.0038
1539.00,0.0038
1538.00,0.0038
1537.00,0.0038
1536.00,0.0038
1535.00,0.0039
1534.00,0.0039
1533.00,0.0039
1532.00,0.0038
1531.00,0.0038
1530.00,0.0038
1529.00,0.0038
1528.00,0.0038
1527.00,0.0037
1526.00,0.0036
1525.00,0.0035
1524.00,0.0035
1523.00,0.0035
1522.00,0.0035
1521.00,0.0036
1520.00,0.0036
1519.00,0.0037
1518.00,0.0036
1517.00,0.0035
1516.00,0.0034
1515.00,0.0034
1514.00,0.0033
1513.00,0.0033
1512.00,0.0033
1511.00,0.0033
1510.00,0.0033
1509.00,0.0034
1508.00,0.0035
1507.00,0.0036
1506.00,0.0036
1505.00,0.0035
1504.00,0.0034
1503.00,0.0034
1502.00,0.0034
1501.00,0.0033
1500.00,0.0033
1499.00,0.0034
1498.00,0.0034
1497.00,0.0035
1496.00,0.0036
1495.00,0.0036
1494.00,0.0035
1493.00,0.0034
1492.00,0.0034
1491.00,0.0034
1490.00,0.0034
1489.00,0.0034
1488.00,0.0034
1487.00,0.0033
1486.00,0.0032
1485.00,0.0032
1484.00,0.0032
1483.00,0.0032
1482.00,0.0032
1481.00,0.0032
1480.00,0.0032
1479.00,0.0032
1478.00,0.0032
1477.00,0.0032
1476.00,0.0032
1475.00,0.0032
1474.00,0.0031
1473.00,0.0031
1472.00,0.0031
1471.00,0.0032
1470.00,0.0032
1469.00,0.0033
1468.00,0.0033
1467.00,0.0033
1466.00,0.0033
1465.00,0.0032
1464.00,0.0032
1463.00,0.0031
1462.00,0.0030
1461.00,0.0029
1460.00,0.0028
1459.00,0.0027
1458.00,0.0026
1457.00,0.0027
1456.00,0.0027
1455.00,0.0028
1454.00,0.0028
1453.00,0.0028
1452.00,0.0029
1451.00,0.0030
1450.00,0.0031
1449.00,0.0032
1448.00,0.0033
1447.00,0.0033
1446.00,0.0033
1445.00,0.0032
1444.00,0.0032
1443.00,0.0031
1442.00,0.0030
1441.00,0.0030
1440.00,0.0030
1439.00,0.0031
1438.00,0.0031
1437.00,0.0032
1436.00,0.0032
1435.00,0.0032
1434.00,0.0031
1433.00,0.0031
1432.00,0.0031
1431.00,0.0030
1430.00,0.0029
1429.00,0.0028
1428.00,0.0028
1427.00,0.0028
1426.00,0.0029
1425.00,0.0029
1424.00,0.0030
1423.00,0.0030
1422.00,0.0030
1421.00,0.0030
1420.00,0.0030
1419.00,0.0031
1418.00,0.0031
1417.00,0.0031
1416.00,0.0031
1415.00,0.0031
1414.00,0.0031
1413.00,0.0030
1412.00,0.0029
1411.00,0.0028
1410.00,0.0028
1409.00,0.0028
1408.00,0.0027
1407.00,0.0027
1406.00,0.0026
1405.00,0.0025
1404.00,0.0024
1403.00,0.0023
1402.00,0.0022
1401.00,0.0021
1400.00,0.0020
1399.00,0.0020
1398.00,0.0020
1397.00,0.0021
1396.00,0.0021
1395.00,0.0021
1394.00,0.0021
1393.00,0.0020
1392.00,0.0020
1391.00,0.0020
1390.00,0.0020
1389.00,0.0019
1388.00,0.0019
1387.00,0.0019
1386.00,0.0018
1385.00,0.0017
1384.00,0.0017
1383.00,0.0016
1382.00,0.0017
1381.00,0.0017
1380.00,0.0018
1379.00,0.0018
1378.00,0.0019
1377.00,0.0020
1376.00,0.0020
1375.00,0.0021
1374.00,0.0021
1373.00,0.0020
1372.00,0.0020
1371.00,0.0020
1370.00,0.0021
1369.00,0.0021
1368.00,0.0021
1367.00,0.0021
1366.00,0.0021
1365.00,0.0020
1364.00,0.0020
1363.00,0.0020
1362.00,0.0021
1361.00,0.0022
1360.00,0.0022
1359.00,0.0022
1358.00,0.0022
1357.00,0.0022
1356.00,0.0022
1355.00,0.0023
1354.00,0.0023
1353.00,0.0023
1352.00,0.0023
1351.00,0.0022
1350.00,0.0022
1349.00,0.0021
1348.00,0.0020
1347.00,0.0020
1346.00,0.0020
1345.00,0.0020
1344.00,0.0019
1343.00,0.0019
1342.00,0.0020
1341.00,0.0020
1340.00,0.0021
1339.00,0.0022
1338.00,0.0023
1337.00,0.0023
1336.00,0.0023
1335.00,0.0023
1334.00,0.0023
1333.00,0.0022
1332.00,0.0022
1331.00,0.0021
1330.00,0.0021
1329.00,0.0020
1328.00,0.0020
1327.00,0.0021
1326.00,0.0021
1325.00,0.0022
1324.00,0.0022
1323.00,0.0023
1322.00,0.0023
1321.00,0.0024
1320.00,0.0024
1319.00,0.0023
1318.00,0.0022
1317.00,0.0020
1316.00,0.0018
1315.00,0.0018
1314.00,0.0018
1313.00,0.0019
1312.00,0.0020
1311.00,0.0021
1310.00,0.0022
1309.00,0.0023
1308.00,0.0023
1307.00,0.0022
1306.00,0.0022
1305.00,0.0022
1304.00,0.0022
1303.00,0.0022
1302.00,0.0022
1301.00,0.0022
1300.00,0.0021
1299.00,0.0021
1298.00,0.0020
1297.00,0.0019
1296.00,0.0019
1295.00,0.0019
1294.00,0.0019
1293.00,0.0020
1292.00,0.0020
1291.00,0.0021
1290.00,0.0021
1289.00,0.0020
1288.00,0.0020
1287.00,0.0019
1286.00,0.0018
1285.00,0.0018
1284.00,0.0018
1283.00,0.0019
1282.00,0.0019
1281.00,0.0019
1280.00,0.0019
1279.00,0.0018
1278.00,0.0017
1277.00,0.0016
1276.00,0.0016
1275.00,0.0016
1274.00,0.0016
1273.00,0.0015
1272.00,0.0015
1271.00,0.0014
1270.00,0.0014
1269.00,0.0014
1268.00,0.0014
1267.00,0.0014
1266.00,0.0015
1265.00,0.0015
1264.00,0.0015
1263.00,0.0015
1262.00,0.0014
1261.00,0.0013
1260.00,0.0013
1259.00,0.0013
1258.00,0.0013
1257.00,0.0012
1256.00,0.0011
1255.00,0.0011
1254.00,0.0012
1253.00,0.0013
1252.00,0.0014
1251.00,0.0014
1250.00,0.0014
1249.00,0.0014
1248.00,0.0014
1247.00,0.0015
1246.00,0.0016
1245.00,0.0017
1244.00,0.0017
1243.00,0.0017
1242.00,0.0017
1241.00,0.0017
1240.00,0.0017
1239.00,0.0018
1238.00,0.0020
1237.00,0.0021
1236.00,0.0023
1235.00,0.0024
1234.00,0.0025
1233.00,0.0026
1232.00,0.0026
1231.00,0.0026
1230.00,0.0027
1229.00,0.0027
1228.00,0.0028
1227.00,0.0029
1226.00,0.0030
1225.00,0.0030
1224.00,0.0031
1223.00,0.0032
1222.00,0.0034
1221.00,0.0037
1220.00,0.0039
1219.00,0.0040
1218.00,0.0041
1217.00,0.0042
1216.00,0.0043
1215.00,0.0043
1214.00,0.0043
1213.00,0.0044
1212.00,0.0045
1211.00,0.0047
1210.00,0.0048
1209.00,0.0050
1208.00,0.0051
1207.00,0.0052
1206.00,0.0053
1205.00,0.0053
1204.00,0.0054
1203.00,0.0055
1202.00,0.0055
1201.00,0.0055
1200.00,0.0055
1199.00,0.0056
1198.00,0.0056
1197.00,0.0056
1196.00,0.0056
1195.00,0.0057
1194.00,0.0059
1193.00,0.0060
1192.00,0.0062
1191.00,0.0063
1190.00,0.0064
1189.00,0.0063
1188.00,0.0063
1187.00,0.0063
1186.00,0.0064
1185.00,0.0065
1184.00,0.0065
1183.00,0.0064
1182.00,0.0062
1181.00,0.0061
1180.00,0.0061
1179.00,0.0062
1178.00,0.0064
1177.00,0.0065
1176.00,0.0067
1175.00,0.0068
1174.00,0.0068
1173.00,0.0068
1172.00,0.0067
1171.00,0.0065
1170.00,0.0064
1169.00,0.0064
1168.00,0.0064
1167.00,0.0065
1166.00,0.0067
1165.00,0.0068
1164.00,0.0069
1163.00,0.0070
1162.00,0.0071
1161.00,0.0073
1160.00,0.0074
1159.00,0.0074
1158.00,0.0074
1157.00,0.0073
1156.00,0.0073
1155.00,0.0073
1154.00,0.0074
1153.00,0.0074
1152.00,0.0074
1151.00,0.0074
1150.00,0.0075
1149.00,0.0075
1148.00,0.0075
1147.00,0.0075
1146.00,0.0076
1145.00,0.0077
1144.00,0.0078
1143.00,0.0080
1142.00,0.0082
1141.00,0.0083
1140.00,0.0082
1139.00,0.0081
1138.00,0.0081
1137.00,0.0081
1136.00,0.0083
1135.00,0.0085
1134.00,0.0088
1133.00,0.0091
1132.00,0.0093
1131.00,0.0093
1130.00,0.0093
1129.00,0.0093
1128.00,0.0094
1127.00,0.0093
1126.00,0.0091
1125.00,0.0090
1124.00,0.0089
1123.00,0.0091
1122.00,0.0094
1121.00,0.0097
1120.00,0.0098
1119.00,0.0099
1118.00,0.0099
1117.00,0.0099
1116.00,0.0101
1115.00,0.0103
1114.00,0.0104
1113.00,0.0104
1112.00,0.0102
1111.00,0.0102
1110.00,0.0102
1109.00,0.0102
1108.00,0.0104
1107.00,0.0105
1106.00,0.0106
1105.00,0.0107
1104.00,0.0108
1103.00,0.0110
1102.00,0.0113
1101.00,0.0115
1100.00,0.0115
1099.00,0.0115
1098.00,0.0114
1097.00,0.0114
1096.00,0.0113
1095.00,0.0113
1094.00,0.0114
1093.00,0.0116
1092.00,0.0118
1091.00,0.0121
1090.00,0.0122
1089.00,0.0121
1088.00,0.0121
1087.00,0.0122
1086.00,0.0123
1085.00,0.0124
1084.00,0.0126
1083.00,0.0128
1082.00,0.0129
1081.00,0.0131
1080.00,0.0132
1079.00,0.0134
1078.00,0.0137
1077.00,0.0140
1076.00,0.0141
1075.00,0.0140
1074.00,0.0139
1073.00,0.0139
1072.00,0.0139
1071.00,0.0140
1070.00,0.0138
1069.00,0.0136
1068.00,0.0135
1067.00,0.0135
1066.00,0.0137
1065.00,0.0140
1064.00,0.0144
1063.00,0.0146
1062.00,0.0147
1061.00,0.0145
1060.00,0.0143
1059.00,0.0142
1058.00,0.0144
1057.00,0.0147
1056.00,0.0149
1055.00,0.0151
1054.00,0.0151
1053.00,0.0152
1052.00,0.0152
1051.00,0.0152
1050.00,0.0153
1049.00,0.0154
1048.00,0.0157
1047.00,0.0160
1046.00,0.0162
1045.00,0.0165
1044.00,0.0166
1043.00,0.0165
1042.00,0.0163
1041.00,0.0161
1040.00,0.0159
1039.00,0.0160
1038.00,0.0160
1037.00,0.0161
1036.00,0.0162
1035.00,0.0162
1034.00,0.0163
1033.00,0.0164
1032.00,0.0165
1031.00,0.0166
1030.00,0.0165
1029.00,0.0165
1028.00,0.0165
1027.00,0.0165
1026.00,0.0166
1025.00,0.0167
1024.00,0.0167
1023.00,0.0167
1022.00,0.0167
1021.00,0.0167
1020.00,0.0167
1019.00,0.0167
1018.00,0.0166
1017.00,0.0167
1016.00,0.0168
1015.00,0.0169
1014.00,0.0170
1013.00,0.0170
1012.00,0.0170
1011.00,0.0169
1010.00,0.0169
1009.00,0.0169
1008.00,0.0167
1007.00,0.0165
1006.00,0.0163
1005.00,0.0163
1004.00,0.0163
1003.00,0.0165
1002.00,0.0165
1001.00,0.0165
1000.00,0.0163
999.00,0.0160
998.00,0.0157
997.00,0.0156
996.00,0.0157
995.00,0.0158
994.00,0.0158
993.00,0.0157
992.00,0.0156
991.00,0.0155
990.00,0.0154
989.00,0.0153
988.00,0.0153
987.00,0.0154
986.00,0.0155
985.00,0.0155
984.00,0.0154
983.00,0.0151
982.00,0.0148
981.00,0.0145
980.00,0.0144
979.00,0.0142
978.00,0.0140
977.00,0.0138
976.00,0.0136
975.00,0.0136
974.00,0.0136
973.00,0.0136
972.00,0.0136
971.00,0.0134
970.00,0.0131
969.00,0.0129
968.00,0.0127
967.00,0.0127
966.00,0.0126
965.00,0.0124
964.00,0.0123
963.00,0.0122
962.00,0.0122
961.00,0.0122
960.00,0.0121
959.00,0.0120
958.00,0.0119
957.00,0.0119
956.00,0.0118
955.00,0.0116
954.00,0.0114
953.00,0.0111
952.00,0.0111
951.00,0.0112
950.00,0.0114
949.00,0.0115
948.00,0.0115
947.00,0.0113
946.00,0.0110
945.00,0.0109
944.00,0.0107
943.00,0.0107
942.00,0.0106
941.00,0.0106
940.00,0.0107
939.00,0.0108
938.00,0.0108
937.00,0.0106
936.00,0.0104
935.00,0.0101
934.00,0.0101
933.00,0.0103
932.00,0.0106
931.00,0.0109
930.00,0.0110
929.00,0.0111
928.00,0.0111
927.00,0.0111
926.00,0.0111
925.00,0.0111
924.00,0.0111
923.00,0.0112
922.00,0.0111
921.00,0.0110
920.00,0.0108
919.00,0.0107
918.00,0.0106
917.00,0.0105
916.00,0.0106
915.00,0.0107
914.00,0.0106
913.00,0.0105
912.00,0.0104
911.00,0.0103
910.00,0.0102
909.00,0.0101
908.00,0.0099
907.00,0.0098
906.00,0.0099
905.00,0.0102
904.00,0.0106
903.00,0.0109
902.00,0.0111
901.00,0.0110
900.00,0.0109
899.00,0.0107
898.00,0.0107
897.00,0.0107
896.00,0.0107
895.00,0.0106
894.00,0.0105
893.00,0.0102
892.00,0.0100
891.00,0.0098
890.00,0.0098
889.00,0.0099
888.00,0.0100
887.00,0.0100
886.00,0.0098
885.00,0.0096
884.00,0.0097
883.00,0.0099
882.00,0.0102
881.00,0.0103
880.00,0.0103
879.00,0.0102
878.00,0.0099
877.00,0.0096
876.00,0.0094
875.00,0.0093
874.00,0.0093
873.00,0.0094
872.00,0.0095
871.00,0.0096
870.00,0.0096
869.00,0.0095
868.00,0.0092
867.00,0.0088
866.00,0.0086
865.00,0.0086
864.00,0.0087
863.00,0.0089
862.00,0.0090
861.00,0.0091
860.00,0.0091
859.00,0.0089
858.00,0.0085
857.00,0.0082
856.00,0.0081
855.00,0.0082
854.00,0.0083
853.00,0.0084
852.00,0.0083
851.00,0.0082
850.00,0.0082
849.00,0.0083
848.00,0.0084
847.00,0.0085
846.00,0.0087
845.00,0.0089
844.00,0.0090
843.00,0.0090
842.00,0.0089
841.00,0.0087
840.00,0.0085
839.00,0.0082
838.00,0.0081
837.00,0.0081
836.00,0.0082
835.00,0.0081
834.00,0.0080
833.00,0.0079
832.00,0.0078
831.00,0.0077
830.00,0.0077
829.00,0.0077
828.00,0.0078
827.00,0.0081
826.00,0.0083
825.00,0.0086
824.00,0.0088
823.00,0.0088
822.00,0.0087
821.00,0.0087
820.00,0.0088
819.00,0.0089
818.00,0.0090
817.00,0.0089
816.00,0.0087
815.00,0.0085
814.00,0.0084
813.00,0.0085
812.00,0.0086
811.00,0.0086
810.00,0.0086
809.00,0.0086
808.00,0.0086
807.00,0.0084
806.00,0.0081
805.00,0.0078
804.00,0.0077
803.00,0.0077
802.00,0.0080
801.00,0.0084
800.00,0.0088
799.00,0.0090
798.00,0.0089
797.00,0.0086
796.00,0.0084
795.00,0.0082
794.00,0.0083
793.00,0.0084
792.00,0.0087
791.00,0.0090
790.00,0.0092
789.00,0.0092
788.00,0.0090
787.00,0.0089
786.00,0.0089
785.00,0.0092
784.00,0.0095
783.00,0.0097
782.00,0.0097
781.00,0.0095
780.00,0.0092
779.00,0.0089
778.00,0.0089
777.00,0.0090
776.00,0.0092
775.00,0.0092
774.00,0.0090
773.00,0.0087
772.00,0.0085
771.00,0.0084
770.00,0.0084
769.00,0.0085
768.00,0.0085
767.00,0.0084
766.00,0.0084
765.00,0.0084
764.00,0.0085
763.00,0.0085
762.00,0.0084
761.00,0.0082
760.00,0.0081
759.00,0.0082
758.00,0.0084
757.00,0.0086
756.00,0.0087
755.00,0.0086
754.00,0.0083
753.00,0.0081
752.00,0.0079
751.00,0.0080
750.00,0.0081
749.00,0.0083
748.00,0.0084
747.00,0.0086
746.00,0.0087
745.00,0.0086
744.00,0.0085
743.00,0.0083
742.00,0.0083
741.00,0.0083
740.00,0.0082
739.00,0.0080
738.00,0.0079
737.00,0.0079
736.00,0.0079
735.00,0.0079
734.00,0.0078
733.00,0.0077
732.00,0.0078
731.00,0.0080
730.00,0.0083
729.00,0.0085
728.00,0.0087
727.00,0.0090
726.00,0.0092
725.00,0.0092
724.00,0.0089
723.00,0.0085
722.00,0.0081
721.00,0.0080
720.00,0.0079
719.00,0.0078
718.00,0.0077
717.00,0.0076
716.00,0.0076
715.00,0.0075
714.00,0.0075
713.00,0.0076
712.00,0.0079
711.00,0.0081
710.00,0.0081
709.00,0.0080
708.00,0.0078
707.00,0.0078
706.00,0.0081
705.00,0.0086
704.00,0.0091
703.00,0.0093
702.00,0.0090
701.00,0.0084
700.00,0.0079
699.00,0.0077
698.00,0.0078
697.00,0.0080
696.00,0.0081
695.00,0.0082
694.00,0.0083
693.00,0.0081
692.00,0.0077
691.00,0.0074
690.00,0.0074
689.00,0.0076
688.00,0.0078
687.00,0.0078
686.00,0.0076
685.00,0.0073
684.00,0.0070
683.00,0.0066
682.00,0.0064
681.00,0.0064
680.00,0.0067
679.00,0.0072
678.00,0.0078
677.00,0.0082
676.00,0.0083
675.00,0.0080
674.00,0.0077
673.00,0.0077
672.00,0.0080
671.00,0.0086
670.00,0.0095
669.00,0.0107
668.00,0.0111
667.00,0.0104
666.00,0.0096
665.00,0.0090
664.00,0.0084
663.00,0.0077
662.00,0.0071
661.00,0.0067
660.00,0.0064
659.00,0.0064
658.00,0.0064
657.00,0.0069
656.00,0.0067
655.00,0.0059
654.00,0.0061
653.00,0.0060
652.00,0.0059
651.00,0.0056
650.00,0.0054
