Created as New Dataset,Monday, April 03 2023
cm-1,A
4000.00,0.0010
3999.00,0.0009
3998.00,0.0009
3997.00,0.0009
3996.00,0.0008
3995.00,0.0008
3994.00,0.0008
3993.00,0.0008
3992.00,0.0009
3991.00,0.0009
3990.00,0.0009
3989.00,0.0009
3988.00,0.0008
3987.00,0.0008
3986.00,0.0008
3985.00,0.0009
3984.00,0.0009
3983.00,0.0009
3982.00,0.0009
3981.00,0.0009
3980.00,0.0009
3979.00,0.0009
3978.00,0.0009
3977.00,0.0009
3976.00,0.0008
3975.00,0.0008
3974.00,0.0008
3973.00,0.0008
3972.00,0.0009
3971.00,0.0009
3970.00,0.0010
3969.00,0.0010
3968.00,0.0010
3967.00,0.0009
3966.00,0.0008
3965.00,0.0008
3964.00,0.0009
3963.00,0.0010
3962.00,0.0010
3961.00,0.0010
3960.00,0.0009
3959.00,0.0009
3958.00,0.0009
3957.00,0.0009
3956.00,0.0008
3955.00,0.0008
3954.00,0.0008
3953.00,0.0008
3952.00,0.0009
3951.00,0.0010
3950.00,0.0011
3949.00,0.0011
3948.00,0.0011
3947.00,0.0011
3946.00,0.0011
3945.00,0.0011
3944.00,0.0010
3943.00,0.0009
3942.00,0.0009
3941.00,0.0009
3940.00,0.0009
3939.00,0.0009
3938.00,0.0009
3937.00,0.0010
3936.00,0.0010
3935.00,0.0010
3934.00,0.0010
3933.00,0.0010
3932.00,0.0010
3931.00,0.0010
3930.00,0.0010
3929.00,0.0010
3928.00,0.0010
3927.00,0.0010
3926.00,0.0010
3925.00,0.0011
3924.00,0.0011
3923.00,0.0011
3922.00,0.0011
3921.00,0.0010
3920.00,0.0010
3919.00,0.0010
3918.00,0.0010
3917.00,0.0010
3916.00,0.0010
3915.00,0.0010
3914.00,0.0010
3913.00,0.0010
3912.00,0.0009
3911.00,0.0009
3910.00,0.0010
3909.00,0.0010
3908.00,0.0011
3907.00,0.0011
3906.00,0.0011
3905.00,0.0011
3904.00,0.0011
3903.00,0.0011
3902.00,0.0012
3901.00,0.0012
3900.00,0.0012
3899.00,0.0012
3898.00,0.0011
3897.00,0.0011
3896.00,0.0011
3895.00,0.0012
3894.00,0.0012
3893.00,0.0011
3892.00,0.0010
3891.00,0.0009
3890.00,0.0009
3889.00,0.0008
3888.00,0.0008
3887.00,0.0008
3886.00,0.0008
3885.00,0.0008
3884.00,0.0009
3883.00,0.0009
3882.00,0.0009
3881.00,0.0009
3880.00,0.0008
3879.00,0.0008
3878.00,0.0009
3877.00,0.0011
3876.00,0.0012
3875.00,0.0012
3874.00,0.0011
3873.00,0.0011
3872.00,0.0011
3871.00,0.0011
3870.00,0.0011
3869.00,0.0011
3868.00,0.0011
3867.00,0.0011
3866.00,0.0012
3865.00,0.0013
3864.00,0.0013
3863.00,0.0013
3862.00,0.0013
3861.00,0.0013
3860.00,0.0013
3859.00,0.0012
3858.00,0.0011
3857.00,0.0009
3856.00,0.0007
3855.00,0.0008
3854.00,0.0009
3853.00,0.0010
3852.00,0.0009
3851.00,0.0010
3850.00,0.0010
3849.00,0.0010
3848.00,0.0010
3847.00,0.0011
3846.00,0.0011
3845.00,0.0011
3844.00,0.0011
3843.00,0.0012
3842.00,0.0012
3841.00,0.0014
3840.00,0.0015
3839.00,0.0015
3838.00,0.0014
3837.00,0.0013
3836.00,0.0012
3835.00,0.0012
3834.00,0.0012
3833.00,0.0012
3832.00,0.0012
3831.00,0.0012
3830.00,0.0012
3829.00,0.0013
3828.00,0.0013
3827.00,0.0012
3826.00,0.0012
3825.00,0.0012
3824.00,0.0013
3823.00,0.0014
3822.00,0.0015
3821.00,0.0014
3820.00,0.0013
3819.00,0.0012
3818.00,0.0012
3817.00,0.0012
3816.00,0.0012
3815.00,0.0011
3814.00,0.0012
3813.00,0.0012
3812.00,0.0012
3811.00,0.0011
3810.00,0.0009
3809.00,0.0009
3808.00,0.0009
3807.00,0.0010
3806.00,0.0012
3805.00,0.0013
3804.00,0.0015
3803.00,0.0016
3802.00,0.0016
3801.00,0.0015
3800.00,0.0014
3799.00,0.0014
3798.00,0.0013
3797.00,0.0012
3796.00,0.0011
3795.00,0.0010
3794.00,0.0010
3793.00,0.0011
3792.00,0.0011
3791.00,0.0011
3790.00,0.0011
3789.00,0.0012
3788.00,0.0013
3787.00,0.0014
3786.00,0.0015
3785.00,0.0015
3784.00,0.0014
3783.00,0.0014
3782.00,0.0014
3781.00,0.0013
3780.00,0.0012
3779.00,0.0012
3778.00,0.0011
3777.00,0.0011
3776.00,0.0012
3775.00,0.0012
3774.00,0.0012
3773.00,0.0011
3772.00,0.0011
3771.00,0.0011
3770.00,0.0011
3769.00,0.0011
3768.00,0.0012
3767.00,0.0013
3766.00,0.0013
3765.00,0.0014
3764.00,0.0014
3763.00,0.0014
3762.00,0.0014
3761.00,0.0014
3760.00,0.0014
3759.00,0.0014
3758.00,0.0013
3757.00,0.0013
3756.00,0.0012
3755.00,0.0012
3754.00,0.0012
3753.00,0.0013
3752.00,0.0014
3751.00,0.0015
3750.00,0.0016
3749.00,0.0016
3748.00,0.0016
3747.00,0.0015
3746.00,0.0014
3745.00,0.0012
3744.00,0.0011
3743.00,0.0011
3742.00,0.0013
3741.00,0.0015
3740.00,0.0016
3739.00,0.0016
3738.00,0.0017
3737.00,0.0018
3736.00,0.0018
3735.00,0.0017
3734.00,0.0015
3733.00,0.0013
3732.00,0.0012
3731.00,0.0012
3730.00,0.0012
3729.00,0.0013
3728.00,0.0013
3727.00,0.0014
3726.00,0.0014
3725.00,0.0014
3724.00,0.0014
3723.00,0.0013
3722.00,0.0013
3721.00,0.0013
3720.00,0.0013
3719.00,0.0013
3718.00,0.0013
3717.00,0.0012
3716.00,0.0012
3715.00,0.0012
3714.00,0.0013
3713.00,0.0014
3712.00,0.0015
3711.00,0.0014
3710.00,0.0013
3709.00,0.0011
3708.00,0.0011
3707.00,0.0012
3706.00,0.0013
3705.00,0.0014
3704.00,0.0014
3703.00,0.0013
3702.00,0.0011
3701.00,0.0011
3700.00,0.0011
3699.00,0.0012
3698.00,0.0012
3697.00,0.0012
3696.00,0.0012
3695.00,0.0012
3694.00,0.0012
3693.00,0.0012
3692.00,0.0013
3691.00,0.0015
3690.00,0.0016
3689.00,0.0016
3688.00,0.0014
3687.00,0.0013
3686.00,0.0013
3685.00,0.0013
3684.00,0.0012
3683.00,0.0012
3682.00,0.0011
3681.00,0.0011
3680.00,0.0010
3679.00,0.0009
3678.00,0.0008
3677.00,0.0008
3676.00,0.0008
3675.00,0.0007
3674.00,0.0006
3673.00,0.0007
3672.00,0.0009
3671.00,0.0011
3670.00,0.0011
3669.00,0.0010
3668.00,0.0009
3667.00,0.0009
3666.00,0.0008
3665.00,0.0008
3664.00,0.0008
3663.00,0.0008
3662.00,0.0008
3661.00,0.0009
3660.00,0.0010
3659.00,0.0011
3658.00,0.0012
3657.00,0.0012
3656.00,0.0011
3655.00,0.0011
3654.00,0.0012
3653.00,0.0012
3652.00,0.0013
3651.00,0.0013
3650.00,0.0012
3649.00,0.0012
3648.00,0.0010
3647.00,0.0008
3646.00,0.0008
3645.00,0.0009
3644.00,0.0009
3643.00,0.0010
3642.00,0.0010
3641.00,0.0010
3640.00,0.0010
3639.00,0.0010
3638.00,0.0010
3637.00,0.0010
3636.00,0.0010
3635.00,0.0011
3634.00,0.0011
3633.00,0.0011
3632.00,0.0011
3631.00,0.0011
3630.00,0.0011
3629.00,0.0011
3628.00,0.0010
3627.00,0.0009
3626.00,0.0009
3625.00,0.0009
3624.00,0.0009
3623.00,0.0009
3622.00,0.0010
3621.00,0.0011
3620.00,0.0012
3619.00,0.0013
3618.00,0.0013
3617.00,0.0013
3616.00,0.0014
3615.00,0.0014
3614.00,0.0013
3613.00,0.0012
3612.00,0.0011
3611.00,0.0011
3610.00,0.0012
3609.00,0.0013
3608.00,0.0013
3607.00,0.0012
3606.00,0.0011
3605.00,0.0010
3604.00,0.0009
3603.00,0.0010
3602.00,0.0011
3601.00,0.0012
3600.00,0.0013
3599.00,0.0013
3598.00,0.0012
3597.00,0.0011
3596.00,0.0011
3595.00,0.0011
3594.00,0.0010
3593.00,0.0009
3592.00,0.0008
3591.00,0.0008
3590.00,0.0008
3589.00,0.0009
3588.00,0.0009
3587.00,0.0009
3586.00,0.0009
3585.00,0.0010
3584.00,0.0010
3583.00,0.0011
3582.00,0.0010
3581.00,0.0010
3580.00,0.0009
3579.00,0.0009
3578.00,0.0009
3577.00,0.0009
3576.00,0.0009
3575.00,0.0009
3574.00,0.0009
3573.00,0.0010
3572.00,0.0010
3571.00,0.0010
3570.00,0.0010
3569.00,0.0011
3568.00,0.0012
3567.00,0.0013
3566.00,0.0013
3565.00,0.0012
3564.00,0.0011
3563.00,0.0010
3562.00,0.0010
3561.00,0.0010
3560.00,0.0010
3559.00,0.0010
3558.00,0.0010
3557.00,0.0010
3556.00,0.0011
3555.00,0.0011
3554.00,0.0011
3553.00,0.0011
3552.00,0.0011
3551.00,0.0011
3550.00,0.0012
3549.00,0.0013
3548.00,0.0014
3547.00,0.0014
3546.00,0.0014
3545.00,0.0014
3544.00,0.0013
3543.00,0.0013
3542.00,0.0012
3541.00,0.0011
3540.00,0.0010
3539.00,0.0009
3538.00,0.0007
3537.00,0.0007
3536.00,0.0007
3535.00,0.0008
3534.00,0.0008
3533.00,0.0009
3532.00,0.0010
3531.00,0.0010
3530.00,0.0010
3529.00,0.0009
3528.00,0.0008
3527.00,0.0008
3526.00,0.0009
3525.00,0.0011
3524.00,0.0012
3523.00,0.0012
3522.00,0.0011
3521.00,0.0010
3520.00,0.0008
3519.00,0.0007
3518.00,0.0006
3517.00,0.0005
3516.00,0.0005
3515.00,0.0005
3514.00,0.0006
3513.00,0.0007
3512.00,0.0008
3511.00,0.0009
3510.00,0.0009
3509.00,0.0008
3508.00,0.0008
3507.00,0.0008
3506.00,0.0009
3505.00,0.0009
3504.00,0.0010
3503.00,0.0010
3502.00,0.0009
3501.00,0.0009
3500.00,0.0008
3499.00,0.0008
3498.00,0.0008
3497.00,0.0009
3496.00,0.0008
3495.00,0.0007
3494.00,0.0007
3493.00,0.0006
3492.00,0.0006
3491.00,0.0006
3490.00,0.0006
3489.00,0.0006
3488.00,0.0006
3487.00,0.0007
3486.00,0.0007
3485.00,0.0007
3484.00,0.0006
3483.00,0.0007
3482.00,0.0007
3481.00,0.0006
3480.00,0.0006
3479.00,0.0006
3478.00,0.0006
3477.00,0.0006
3476.00,0.0007
3475.00,0.0007
3474.00,0.0007
3473.00,0.0007
3472.00,0.0007
3471.00,0.0007
3470.00,0.0007
3469.00,0.0007
3468.00,0.0007
3467.00,0.0007
3466.00,0.0007
3465.00,0.0008
3464.00,0.0008
3463.00,0.0007
3462.00,0.0005
3461.00,0.0004
3460.00,0.0004
3459.00,0.0005
3458.00,0.0005
3457.00,0.0005
3456.00,0.0005
3455.00,0.0004
3454.00,0.0004
3453.00,0.0005
3452.00,0.0006
3451.00,0.0007
3450.00,0.0008
3449.00,0.0008
3448.00,0.0008
3447.00,0.0007
3446.00,0.0007
3445.00,0.0006
3444.00,0.0006
3443.00,0.0005
3442.00,0.0005
3441.00,0.0004
3440.00,0.0003
3439.00,0.0003
3438.00,0.0003
3437.00,0.0004
3436.00,0.0004
3435.00,0.0004
3434.00,0.0004
3433.00,0.0004
3432.00,0.0004
3431.00,0.0005
3430.00,0.0005
3429.00,0.0004
3428.00,0.0004
3427.00,0.0003
3426.00,0.0004
3425.00,0.0004
3424.00,0.0005
3423.00,0.0006
3422.00,0.0006
3421.00,0.0006
3420.00,0.0005
3419.00,0.0005
3418.00,0.0004
3417.00,0.0004
3416.00,0.0003
3415.00,0.0003
3414.00,0.0003
3413.00,0.0003
3412.00,0.0003
3411.00,0.0004
3410.00,0.0004
3409.00,0.0004
3408.00,0.0004
3407.00,0.0004
3406.00,0.0004
3405.00,0.0004
3404.00,0.0003
3403.00,0.0003
3402.00,0.0003
3401.00,0.0003
3400.00,0.0004
3399.00,0.0004
3398.00,0.0004
3397.00,0.0003
3396.00,0.0003
3395.00,0.0002
3394.00,0.0002
3393.00,0.0003
3392.00,0.0003
3391.00,0.0003
3390.00,0.0004
3389.00,0.0003
3388.00,0.0003
3387.00,0.0002
3386.00,0.0002
3385.00,0.0002
3384.00,0.0002
3383.00,0.0003
3382.00,0.0003
3381.00,0.0003
3380.00,0.0004
3379.00,0.0005
3378.00,0.0005
3377.00,0.0005
3376.00,0.0004
3375.00,0.0004
3374.00,0.0003
3373.00,0.0003
3372.00,0.0002
3371.00,0.0001
3370.00,0.0001
3369.00,0.0002
3368.00,0.0002
3367.00,0.0002
3366.00,0.0002
3365.00,0.0001
3364.00,0.0001
3363.00,0.0001
3362.00,0.0002
3361.00,0.0003
3360.00,0.0004
3359.00,0.0004
3358.00,0.0004
3357.00,0.0003
3356.00,0.0003
3355.00,0.0003
3354.00,0.0003
3353.00,0.0003
3352.00,0.0003
3351.00,0.0003
3350.00,0.0003
3349.00,0.0002
3348.00,0.0002
3347.00,0.0002
3346.00,0.0002
3345.00,0.0002
3344.00,0.0002
3343.00,0.0002
3342.00,0.0002
3341.00,0.0003
3340.00,0.0003
3339.00,0.0004
3338.00,0.0003
3337.00,0.0003
3336.00,0.0002
3335.00,0.0002
3334.00,0.0002
3333.00,0.0002
3332.00,0.0002
3331.00,0.0001
3330.00,0.0001
3329.00,0.0000
3328.00,0.0000
3327.00,0.0001
3326.00,0.0002
3325.00,0.0003
3324.00,0.0003
3323.00,0.0004
3322.00,0.0003
3321.00,0.0003
3320.00,0.0002
3319.00,0.0002
3318.00,0.0002
3317.00,0.0002
3316.00,0.0002
3315.00,0.0001
3314.00,0.0001
3313.00,0.0001
3312.00,0.0001
3311.00,0.0001
3310.00,0.0001
3309.00,0.0002
3308.00,0.0003
3307.00,0.0004
3306.00,0.0004
3305.00,0.0004
3304.00,0.0003
3303.00,0.0003
3302.00,0.0003
3301.00,0.0003
3300.00,0.0002
3299.00,0.0002
3298.00,0.0002
3297.00,0.0002
3296.00,0.0002
3295.00,0.0003
3294.00,0.0003
3293.00,0.0003
3292.00,0.0002
3291.00,0.0002
3290.00,0.0001
3289.00,0.0001
3288.00,0.0002
3287.00,0.0002
3286.00,0.0002
3285.00,0.0003
3284.00,0.0004
3283.00,0.0004
3282.00,0.0003
3281.00,0.0002
3280.00,0.0002
3279.00,0.0001
3278.00,0.0001
3277.00,0.0002
3276.00,0.0001
3275.00,0.0001
3274.00,0.0001
3273.00,0.0002
3272.00,0.0003
3271.00,0.0003
3270.00,0.0004
3269.00,0.0004
3268.00,0.0004
3267.00,0.0004
3266.00,0.0003
3265.00,0.0002
3264.00,0.0002
3263.00,0.0001
3262.00,0.0001
3261.00,0.0001
3260.00,0.0002
3259.00,0.0002
3258.00,0.0002
3257.00,0.0002
3256.00,0.0002
3255.00,0.0001
3254.00,0.0002
3253.00,0.0002
3252.00,0.0002
3251.00,0.0003
3250.00,0.0002
3249.00,0.0002
3248.00,0.0002
3247.00,0.0002
3246.00,0.0002
3245.00,0.0002
3244.00,0.0002
3243.00,0.0002
3242.00,0.0002
3241.00,0.0001
3240.00,0.0001
3239.00,0.0001
3238.00,0.0002
3237.00,0.0002
3236.00,0.0003
3235.00,0.0004
3234.00,0.0004
3233.00,0.0004
3232.00,0.0004
3231.00,0.0004
3230.00,0.0003
3229.00,0.0002
3228.00,0.0002
3227.00,0.0002
3226.00,0.0002
3225.00,0.0002
3224.00,0.0002
3223.00,0.0002
3222.00,0.0002
3221.00,0.0001
3220.00,0.0001
3219.00,0.0001
3218.00,0.0001
3217.00,0.0001
3216.00,0.0002
3215.00,0.0003
3214.00,0.0003
3213.00,0.0003
3212.00,0.0002
3211.00,0.0002
3210.00,0.0001
3209.00,0.0001
3208.00,0.0001
3207.00,0.0001
3206.00,0.0002
3205.00,0.0002
3204.00,0.0002
3203.00,0.0003
3202.00,0.0003
3201.00,0.0003
3200.00,0.0003
3199.00,0.0003
3198.00,0.0003
3197.00,0.0003
3196.00,0.0003
3195.00,0.0002
3194.00,0.0002
3193.00,0.0002
3192.00,0.0002
3191.00,0.0002
3190.00,0.0001
3189.00,0.0001
3188.00,0.0000
3187.00,-0.0000
3186.00,-0.0000
3185.00,0.0000
3184.00,0.0001
3183.00,0.0001
3182.00,0.0002
3181.00,0.0002
3180.00,0.0002
3179.00,0.0001
3178.00,0.0000
3177.00,-0.0000
3176.00,-0.0001
3175.00,-0.0000
3174.00,0.0000
3173.00,0.0001
3172.00,0.0001
3171.00,0.0001
3170.00,0.0001
3169.00,0.0001
3168.00,0.0000
3167.00,0.0000
3166.00,0.0001
3165.00,0.0002
3164.00,0.0002
3163.00,0.0003
3162.00,0.0003
3161.00,0.0002
3160.00,0.0001
3159.00,-0.0000
3158.00,-0.0001
3157.00,-0.0001
3156.00,-0.0001
3155.00,0.0000
3154.00,0.0001
3153.00,0.0002
3152.00,0.0002
3151.00,0.0001
3150.00,0.0001
3149.00,0.0001
3148.00,0.0000
3147.00,0.0000
3146.00,-0.0000
3145.00,-0.0000
3144.00,0.0000
3143.00,0.0001
3142.00,0.0001
3141.00,0.0001
3140.00,0.0001
3139.00,0.0001
3138.00,0.0001
3137.00,0.0002
3136.00,0.0002
3135.00,0.0002
3134.00,0.0001
3133.00,0.0001
3132.00,0.0001
3131.00,0.0001
3130.00,0.0001
3129.00,0.0001
3128.00,0.0001
3127.00,0.0001
3126.00,0.0001
3125.00,0.0001
3124.00,0.0001
3123.00,0.0001
3122.00,0.0001
3121.00,0.0001
3120.00,0.0001
3119.00,0.0001
3118.00,0.0001
3117.00,0.0001
3116.00,0.0001
3115.00,0.0001
3114.00,0.0001
3113.00,0.0001
3112.00,0.0000
3111.00,0.0000
3110.00,-0.0000
3109.00,-0.0000
3108.00,-0.0001
3107.00,-0.0000
3106.00,0.0000
3105.00,0.0001
3104.00,0.0001
3103.00,0.0002
3102.00,0.0001
3101.00,0.0001
3100.00,0.0000
3099.00,0.0000
3098.00,-0.0000
3097.00,-0.0000
3096.00,0.0000
3095.00,0.0001
3094.00,0.0002
3093.00,0.0002
3092.00,0.0002
3091.00,0.0001
3090.00,0.0000
3089.00,-0.0001
3088.00,-0.0002
3087.00,-0.0002
3086.00,-0.0001
3085.00,-0.0000
3084.00,0.0000
3083.00,0.0000
3082.00,0.0000
3081.00,0.0000
3080.00,0.0001
3079.00,0.0001
3078.00,0.0001
3077.00,0.0001
3076.00,0.0001
3075.00,0.0001
3074.00,0.0001
3073.00,0.0001
3072.00,0.0001
3071.00,0.0001
3070.00,0.0001
3069.00,0.0002
3068.00,0.0002
3067.00,0.0002
3066.00,0.0002
3065.00,0.0001
3064.00,0.0000
3063.00,-0.0001
3062.00,-0.0001
3061.00,-0.0000
3060.00,0.0000
3059.00,0.0000
3058.00,0.0001
3057.00,0.0001
3056.00,0.0001
3055.00,0.0001
3054.00,0.0000
3053.00,0.0000
3052.00,0.0000
3051.00,0.0001
3050.00,0.0001
3049.00,0.0002
3048.00,0.0002
3047.00,0.0002
3046.00,0.0002
3045.00,0.0002
3044.00,0.0002
3043.00,0.0001
3042.00,0.0000
3041.00,-0.0000
3040.00,-0.0000
3039.00,-0.0000
3038.00,-0.0000
3037.00,0.0000
3036.00,0.0001
3035.00,0.0001
3034.00,0.0001
3033.00,0.0002
3032.00,0.0002
3031.00,0.0001
3030.00,0.0000
3029.00,-0.0000
3028.00,-0.0001
3027.00,-0.0001
3026.00,-0.0000
3025.00,-0.0000
3024.00,-0.0000
3023.00,-0.0000
3022.00,-0.0000
3021.00,-0.0000
3020.00,-0.0001
3019.00,-0.0002
3018.00,-0.0002
3017.00,-0.0003
3016.00,-0.0003
3015.00,-0.0003
3014.00,-0.0004
3013.00,-0.0004
3012.00,-0.0005
3011.00,-0.0005
3010.00,-0.0006
3009.00,-0.0007
3008.00,-0.0008
3007.00,-0.0010
3006.00,-0.0011
3005.00,-0.0011
3004.00,-0.0012
3003.00,-0.0014
3002.00,-0.0015
3001.00,-0.0017
3000.00,-0.0018
2999.00,-0.0019
2998.00,-0.0020
2997.00,-0.0021
2996.00,-0.0022
2995.00,-0.0022
2994.00,-0.0022
2993.00,-0.0023
2992.00,-0.0023
2991.00,-0.0024
2990.00,-0.0024
2989.00,-0.0025
2988.00,-0.0026
2987.00,-0.0028
2986.00,-0.0031
2985.00,-0.0034
2984.00,-0.0037
2983.00,-0.0040
2982.00,-0.0042
2981.00,-0.0041
2980.00,-0.0040
2979.00,-0.0038
2978.00,-0.0036
2977.00,-0.0034
2976.00,-0.0033
2975.00,-0.0032
2974.00,-0.0032
2973.00,-0.0033
2972.00,-0.0033
2971.00,-0.0032
2970.00,-0.0031
2969.00,-0.0029
2968.00,-0.0027
2967.00,-0.0026
2966.00,-0.0025
2965.00,-0.0025
2964.00,-0.0024
2963.00,-0.0023
2962.00,-0.0022
2961.00,-0.0020
2960.00,-0.0020
2959.00,-0.0020
2958.00,-0.0020
2957.00,-0.0019
2956.00,-0.0018
2955.00,-0.0017
2954.00,-0.0016
2953.00,-0.0014
2952.00,-0.0014
2951.00,-0.0013
2950.00,-0.0012
2949.00,-0.0012
2948.00,-0.0011
2947.00,-0.0011
2946.00,-0.0011
2945.00,-0.0011
2944.00,-0.0010
2943.00,-0.0009
2942.00,-0.0008
2941.00,-0.0007
2940.00,-0.0007
2939.00,-0.0007
2938.00,-0.0007
2937.00,-0.0007
2936.00,-0.0005
2935.00,-0.0004
2934.00,-0.0003
2933.00,-0.0003
2932.00,-0.0003
2931.00,-0.0003
2930.00,-0.0003
2929.00,-0.0002
2928.00,-0.0002
2927.00,-0.0002
2926.00,-0.0002
2925.00,-0.0003
2924.00,-0.0003
2923.00,-0.0003
2922.00,-0.0003
2921.00,-0.0004
2920.00,-0.0005
2919.00,-0.0006
2918.00,-0.0007
2917.00,-0.0008
2916.00,-0.0008
2915.00,-0.0008
2914.00,-0.0008
2913.00,-0.0008
2912.00,-0.0007
2911.00,-0.0007
2910.00,-0.0007
2909.00,-0.0007
2908.00,-0.0008
2907.00,-0.0009
2906.00,-0.0009
2905.00,-0.0009
2904.00,-0.0009
2903.00,-0.0010
2902.00,-0.0010
2901.00,-0.0010
2900.00,-0.0010
2899.00,-0.0010
2898.00,-0.0010
2897.00,-0.0010
2896.00,-0.0010
2895.00,-0.0011
2894.00,-0.0011
2893.00,-0.0011
2892.00,-0.0011
2891.00,-0.0012
2890.00,-0.0012
2889.00,-0.0012
2888.00,-0.0012
2887.00,-0.0011
2886.00,-0.0012
2885.00,-0.0012
2884.00,-0.0012
2883.00,-0.0012
2882.00,-0.0012
2881.00,-0.0012
2880.00,-0.0011
2879.00,-0.0010
2878.00,-0.0009
2877.00,-0.0009
2876.00,-0.0008
2875.00,-0.0008
2874.00,-0.0009
2873.00,-0.0009
2872.00,-0.0009
2871.00,-0.0009
2870.00,-0.0009
2869.00,-0.0009
2868.00,-0.0008
2867.00,-0.0008
2866.00,-0.0008
2865.00,-0.0007
2864.00,-0.0006
2863.00,-0.0005
2862.00,-0.0004
2861.00,-0.0003
2860.00,-0.0002
2859.00,-0.0001
2858.00,-0.0000
2857.00,0.0000
2856.00,0.0001
2855.00,0.0000
2854.00,-0.0000
2853.00,-0.0001
2852.00,-0.0001
2851.00,-0.0000
2850.00,-0.0000
2849.00,-0.0000
2848.00,-0.0001
2847.00,-0.0001
2846.00,-0.0002
2845.00,-0.0002
2844.00,-0.0002
2843.00,-0.0002
2842.00,-0.0002
2841.00,-0.0002
2840.00,-0.0003
2839.00,-0.0004
2838.00,-0.0004
2837.00,-0.0003
2836.00,-0.0003
2835.00,-0.0002
2834.00,-0.0002
2833.00,-0.0002
2832.00,-0.0003
2831.00,-0.0004
2830.00,-0.0004
2829.00,-0.0004
2828.00,-0.0004
2827.00,-0.0003
2826.00,-0.0003
2825.00,-0.0002
2824.00,-0.0002
2823.00,-0.0002
2822.00,-0.0002
2821.00,-0.0003
2820.00,-0.0003
2819.00,-0.0003
2818.00,-0.0003
2817.00,-0.0003
2816.00,-0.0003
2815.00,-0.0004
2814.00,-0.0004
2813.00,-0.0004
2812.00,-0.0004
2811.00,-0.0004
2810.00,-0.0004
2809.00,-0.0004
2808.00,-0.0004
2807.00,-0.0004
2806.00,-0.0003
2805.00,-0.0003
2804.00,-0.0003
2803.00,-0.0002
2802.00,-0.0003
2801.00,-0.0003
2800.00,-0.0003
2799.00,-0.0003
2798.00,-0.0003
2797.00,-0.0003
2796.00,-0.0003
2795.00,-0.0003
2794.00,-0.0003
2793.00,-0.0003
2792.00,-0.0003
2791.00,-0.0002
2790.00,-0.0002
2789.00,-0.0002
2788.00,-0.0002
2787.00,-0.0002
2786.00,-0.0003
2785.00,-0.0003
2784.00,-0.0003
2783.00,-0.0003
2782.00,-0.0004
2781.00,-0.0004
2780.00,-0.0005
2779.00,-0.0005
2778.00,-0.0004
2777.00,-0.0004
2776.00,-0.0004
2775.00,-0.0004
2774.00,-0.0004
2773.00,-0.0004
2772.00,-0.0004
2771.00,-0.0004
2770.00,-0.0004
2769.00,-0.0005
2768.00,-0.0005
2767.00,-0.0005
2766.00,-0.0005
2765.00,-0.0004
2764.00,-0.0004
2763.00,-0.0004
2762.00,-0.0004
2761.00,-0.0004
2760.00,-0.0004
2759.00,-0.0004
2758.00,-0.0004
2757.00,-0.0004
2756.00,-0.0004
2755.00,-0.0004
2754.00,-0.0004
2753.00,-0.0004
2752.00,-0.0004
2751.00,-0.0003
2750.00,-0.0003
2749.00,-0.0003
2748.00,-0.0002
2747.00,-0.0002
2746.00,-0.0002
2745.00,-0.0003
2744.00,-0.0003
2743.00,-0.0003
2742.00,-0.0003
2741.00,-0.0003
2740.00,-0.0003
2739.00,-0.0004
2738.00,-0.0004
2737.00,-0.0005
2736.00,-0.0005
2735.00,-0.0004
2734.00,-0.0004
2733.00,-0.0003
2732.00,-0.0003
2731.00,-0.0003
2730.00,-0.0003
2729.00,-0.0003
2728.00,-0.0003
2727.00,-0.0003
2726.00,-0.0003
2725.00,-0.0003
2724.00,-0.0004
2723.00,-0.0004
2722.00,-0.0004
2721.00,-0.0005
2720.00,-0.0005
2719.00,-0.0004
2718.00,-0.0003
2717.00,-0.0003
2716.00,-0.0003
2715.00,-0.0003
2714.00,-0.0003
2713.00,-0.0003
2712.00,-0.0003
2711.00,-0.0003
2710.00,-0.0003
2709.00,-0.0003
2708.00,-0.0003
2707.00,-0.0003
2706.00,-0.0003
2705.00,-0.0004
2704.00,-0.0004
2703.00,-0.0004
2702.00,-0.0004
2701.00,-0.0004
2700.00,-0.0004
2699.00,-0.0003
2698.00,-0.0003
2697.00,-0.0003
2696.00,-0.0003
2695.00,-0.0003
2694.00,-0.0003
2693.00,-0.0002
2692.00,-0.0002
2691.00,-0.0002
2690.00,-0.0002
2689.00,-0.0003
2688.00,-0.0003
2687.00,-0.0003
2686.00,-0.0003
2685.00,-0.0003
2684.00,-0.0003
2683.00,-0.0003
2682.00,-0.0003
2681.00,-0.0003
2680.00,-0.0004
2679.00,-0.0004
2678.00,-0.0005
2677.00,-0.0005
2676.00,-0.0005
2675.00,-0.0004
2674.00,-0.0004
2673.00,-0.0003
2672.00,-0.0003
2671.00,-0.0003
2670.00,-0.0004
2669.00,-0.0004
2668.00,-0.0004
2667.00,-0.0004
2666.00,-0.0004
2665.00,-0.0004
2664.00,-0.0004
2663.00,-0.0004
2662.00,-0.0003
2661.00,-0.0003
2660.00,-0.0003
2659.00,-0.0003
2658.00,-0.0002
2657.00,-0.0002
2656.00,-0.0002
2655.00,-0.0002
2654.00,-0.0002
2653.00,-0.0002
2652.00,-0.0002
2651.00,-0.0002
2650.00,-0.0002
2649.00,-0.0002
2648.00,-0.0003
2647.00,-0.0003
2646.00,-0.0003
2645.00,-0.0003
2644.00,-0.0003
2643.00,-0.0003
2642.00,-0.0003
2641.00,-0.0002
2640.00,-0.0002
2639.00,-0.0002
2638.00,-0.0002
2637.00,-0.0002
2636.00,-0.0002
2635.00,-0.0002
2634.00,-0.0002
2633.00,-0.0002
2632.00,-0.0002
2631.00,-0.0002
2630.00,-0.0003
2629.00,-0.0004
2628.00,-0.0005
2627.00,-0.0005
2626.00,-0.0005
2625.00,-0.0004
2624.00,-0.0003
2623.00,-0.0002
2622.00,-0.0002
2621.00,-0.0002
2620.00,-0.0002
2619.00,-0.0002
2618.00,-0.0002
2617.00,-0.0002
2616.00,-0.0002
2615.00,-0.0002
2614.00,-0.0003
2613.00,-0.0002
2612.00,-0.0002
2611.00,-0.0001
2610.00,-0.0001
2609.00,-0.0002
2608.00,-0.0003
2607.00,-0.0003
2606.00,-0.0002
2605.00,-0.0002
2604.00,-0.0001
2603.00,-0.0001
2602.00,-0.0001
2601.00,-0.0001
2600.00,-0.0001
2599.00,-0.0002
2598.00,-0.0002
2597.00,-0.0003
2596.00,-0.0004
2595.00,-0.0004
2594.00,-0.0004
2593.00,-0.0004
2592.00,-0.0003
2591.00,-0.0002
2590.00,-0.0002
2589.00,-0.0002
2588.00,-0.0002
2587.00,-0.0002
2586.00,-0.0002
2585.00,-0.0003
2584.00,-0.0003
2583.00,-0.0002
2582.00,-0.0002
2581.00,-0.0001
2580.00,-0.0001
2579.00,-0.0001
2578.00,-0.0001
2577.00,-0.0001
2576.00,-0.0002
2575.00,-0.0002
2574.00,-0.0002
2573.00,-0.0002
2572.00,-0.0003
2571.00,-0.0004
2570.00,-0.0004
2569.00,-0.0005
2568.00,-0.0004
2567.00,-0.0002
2566.00,-0.0001
2565.00,0.0000
2564.00,0.0000
2563.00,-0.0000
2562.00,-0.0000
2561.00,0.0000
2560.00,0.0000
2559.00,0.0000
2558.00,-0.0000
2557.00,-0.0000
2556.00,0.0000
2555.00,0.0000
2554.00,-0.0000
2553.00,-0.0001
2552.00,-0.0002
2551.00,-0.0003
2550.00,-0.0004
2549.00,-0.0004
2548.00,-0.0005
2547.00,-0.0005
2546.00,-0.0005
2545.00,-0.0004
2544.00,-0.0003
2543.00,-0.0003
2542.00,-0.0004
2541.00,-0.0005
2540.00,-0.0006
2539.00,-0.0007
2538.00,-0.0007
2537.00,-0.0007
2536.00,-0.0006
2535.00,-0.0005
2534.00,-0.0005
2533.00,-0.0004
2532.00,-0.0004
2531.00,-0.0004
2530.00,-0.0005
2529.00,-0.0005
2528.00,-0.0005
2527.00,-0.0005
2526.00,-0.0005
2525.00,-0.0006
2524.00,-0.0006
2523.00,-0.0006
2522.00,-0.0006
2521.00,-0.0006
2520.00,-0.0006
2519.00,-0.0005
2518.00,-0.0004
2517.00,-0.0002
2516.00,-0.0002
2515.00,-0.0002
2514.00,-0.0003
2513.00,-0.0004
2512.00,-0.0005
2511.00,-0.0004
2510.00,-0.0003
2509.00,-0.0003
2508.00,-0.0002
2507.00,-0.0002
2506.00,-0.0003
2505.00,-0.0003
2504.00,-0.0003
2503.00,-0.0003
2502.00,-0.0003
2501.00,-0.0003
2500.00,-0.0002
2499.00,-0.0003
2498.00,-0.0003
2497.00,-0.0003
2496.00,-0.0003
2495.00,-0.0002
2494.00,-0.0001
2493.00,-0.0001
2492.00,-0.0001
2491.00,-0.0001
2490.00,-0.0001
2489.00,-0.0001
2488.00,-0.0001
2487.00,-0.0001
2486.00,-0.0002
2485.00,-0.0003
2484.00,-0.0004
2483.00,-0.0005
2482.00,-0.0004
2481.00,-0.0003
2480.00,-0.0002
2479.00,-0.0002
2478.00,-0.0003
2477.00,-0.0003
2476.00,-0.0003
2475.00,-0.0003
2474.00,-0.0003
2473.00,-0.0003
2472.00,-0.0002
2471.00,-0.0002
2470.00,-0.0002
2469.00,-0.0002
2468.00,-0.0003
2467.00,-0.0003
2466.00,-0.0004
2465.00,-0.0004
2464.00,-0.0005
2463.00,-0.0005
2462.00,-0.0005
2461.00,-0.0005
2460.00,-0.0005
2459.00,-0.0004
2458.00,-0.0003
2457.00,-0.0003
2456.00,-0.0003
2455.00,-0.0002
2454.00,-0.0001
2453.00,0.0000
2452.00,0.0001
2451.00,0.0000
2450.00,-0.0001
2449.00,-0.0002
2448.00,-0.0002
2447.00,-0.0003
2446.00,-0.0003
2445.00,-0.0003
2444.00,-0.0004
2443.00,-0.0004
2442.00,-0.0004
2441.00,-0.0003
2440.00,-0.0003
2439.00,-0.0003
2438.00,-0.0003
2437.00,-0.0003
2436.00,-0.0003
2435.00,-0.0003
2434.00,-0.0003
2433.00,-0.0004
2432.00,-0.0004
2431.00,-0.0004
2430.00,-0.0003
2429.00,-0.0003
2428.00,-0.0003
2427.00,-0.0003
2426.00,-0.0003
2425.00,-0.0003
2424.00,-0.0004
2423.00,-0.0004
2422.00,-0.0004
2421.00,-0.0004
2420.00,-0.0003
2419.00,-0.0003
2418.00,-0.0003
2417.00,-0.0003
2416.00,-0.0004
2415.00,-0.0004
2414.00,-0.0004
2413.00,-0.0004
2412.00,-0.0004
2411.00,-0.0004
2410.00,-0.0004
2409.00,-0.0004
2408.00,-0.0004
2407.00,-0.0005
2406.00,-0.0005
2405.00,-0.0004
2404.00,-0.0004
2403.00,-0.0005
2402.00,-0.0005
2401.00,-0.0005
2400.00,-0.0005
2399.00,-0.0005
2398.00,-0.0004
2397.00,-0.0004
2396.00,-0.0005
2395.00,-0.0005
2394.00,-0.0005
2393.00,-0.0005
2392.00,-0.0006
2391.00,-0.0006
2390.00,-0.0007
2389.00,-0.0007
2388.00,-0.0007
2387.00,-0.0007
2386.00,-0.0006
2385.00,-0.0006
2384.00,-0.0007
2383.00,-0.0008
2382.00,-0.0008
2381.00,-0.0008
2380.00,-0.0007
2379.00,-0.0006
2378.00,-0.0005
2377.00,-0.0006
2376.00,-0.0007
2375.00,-0.0007
2374.00,-0.0008
2373.00,-0.0008
2372.00,-0.0008
2371.00,-0.0009
2370.00,-0.0010
2369.00,-0.0013
2368.00,-0.0015
2367.00,-0.0015
2366.00,-0.0012
2365.00,-0.0009
2364.00,-0.0007
2363.00,-0.0006
2362.00,-0.0006
2361.00,-0.0005
2360.00,-0.0003
2359.00,-0.0003
2358.00,-0.0004
2357.00,-0.0006
2356.00,-0.0008
2355.00,-0.0010
2354.00,-0.0011
2353.00,-0.0010
2352.00,-0.0009
2351.00,-0.0008
2350.00,-0.0009
2349.00,-0.0010
2348.00,-0.0012
2347.00,-0.0013
2346.00,-0.0013
2345.00,-0.0010
2344.00,-0.0008
2343.00,-0.0005
2342.00,-0.0004
2341.00,-0.0003
2340.00,-0.0003
2339.00,-0.0005
2338.00,-0.0006
2337.00,-0.0007
2336.00,-0.0008
2335.00,-0.0008
2334.00,-0.0008
2333.00,-0.0008
2332.00,-0.0008
2331.00,-0.0008
2330.00,-0.0008
2329.00,-0.0008
2328.00,-0.0008
2327.00,-0.0007
2326.00,-0.0006
2325.00,-0.0006
2324.00,-0.0007
2323.00,-0.0007
2322.00,-0.0007
2321.00,-0.0006
2320.00,-0.0006
2319.00,-0.0007
2318.00,-0.0008
2317.00,-0.0009
2316.00,-0.0010
2315.00,-0.0010
2314.00,-0.0010
2313.00,-0.0009
2312.00,-0.0009
2311.00,-0.0007
2310.00,-0.0006
2309.00,-0.0005
2308.00,-0.0005
2307.00,-0.0005
2306.00,-0.0005
2305.00,-0.0005
2304.00,-0.0006
2303.00,-0.0007
2302.00,-0.0008
2301.00,-0.0008
2300.00,-0.0008
2299.00,-0.0007
2298.00,-0.0007
2297.00,-0.0007
2296.00,-0.0007
2295.00,-0.0008
2294.00,-0.0007
2293.00,-0.0006
2292.00,-0.0005
2291.00,-0.0004
2290.00,-0.0003
2289.00,-0.0003
2288.00,-0.0002
2287.00,-0.0001
2286.00,0.0000
2285.00,0.0001
2284.00,0.0002
2283.00,0.0003
2282.00,0.0003
2281.00,0.0002
2280.00,0.0000
2279.00,-0.0000
2278.00,-0.0000
2277.00,-0.0001
2276.00,-0.0001
2275.00,-0.0003
2274.00,-0.0004
2273.00,-0.0005
2272.00,-0.0004
2271.00,-0.0004
2270.00,-0.0003
2269.00,-0.0004
2268.00,-0.0004
2267.00,-0.0004
2266.00,-0.0004
2265.00,-0.0003
2264.00,-0.0002
2263.00,-0.0002
2262.00,-0.0002
2261.00,-0.0002
2260.00,-0.0002
2259.00,-0.0003
2258.00,-0.0005
2257.00,-0.0007
2256.00,-0.0008
2255.00,-0.0008
2254.00,-0.0007
2253.00,-0.0006
2252.00,-0.0006
2251.00,-0.0006
2250.00,-0.0005
2249.00,-0.0005
2248.00,-0.0004
2247.00,-0.0004
2246.00,-0.0003
2245.00,-0.0002
2244.00,-0.0002
2243.00,-0.0002
2242.00,-0.0003
2241.00,-0.0004
2240.00,-0.0005
2239.00,-0.0005
2238.00,-0.0005
2237.00,-0.0005
2236.00,-0.0004
2235.00,-0.0004
2234.00,-0.0004
2233.00,-0.0004
2232.00,-0.0004
2231.00,-0.0005
2230.00,-0.0007
2229.00,-0.0007
2228.00,-0.0007
2227.00,-0.0006
2226.00,-0.0005
2225.00,-0.0005
2224.00,-0.0006
2223.00,-0.0008
2222.00,-0.0009
2221.00,-0.0010
2220.00,-0.0010
2219.00,-0.0009
2218.00,-0.0008
2217.00,-0.0008
2216.00,-0.0006
2215.00,-0.0004
2214.00,-0.0003
2213.00,-0.0003
2212.00,-0.0004
2211.00,-0.0005
2210.00,-0.0006
2209.00,-0.0005
2208.00,-0.0004
2207.00,-0.0003
2206.00,-0.0003
2205.00,-0.0004
2204.00,-0.0005
2203.00,-0.0006
2202.00,-0.0007
2201.00,-0.0007
2200.00,-0.0008
2199.00,-0.0008
2198.00,-0.0007
2197.00,-0.0005
2196.00,-0.0004
2195.00,-0.0004
2194.00,-0.0004
2193.00,-0.0005
2192.00,-0.0005
2191.00,-0.0007
2190.00,-0.0011
2189.00,-0.0014
2188.00,-0.0015
2187.00,-0.0013
2186.00,-0.0009
2185.00,-0.0007
2184.00,-0.0007
2183.00,-0.0009
2182.00,-0.0010
2181.00,-0.0009
2180.00,-0.0007
2179.00,-0.0005
2178.00,-0.0003
2177.00,-0.0002
2176.00,-0.0002
2175.00,-0.0002
2174.00,-0.0004
2173.00,-0.0006
2172.00,-0.0007
2171.00,-0.0007
2170.00,-0.0005
2169.00,-0.0002
2168.00,-0.0000
2167.00,0.0001
2166.00,0.0001
2165.00,0.0001
2164.00,0.0002
2163.00,0.0003
2162.00,0.0003
2161.00,0.0001
2160.00,-0.0003
2159.00,-0.0008
2158.00,-0.0012
2157.00,-0.0014
2156.00,-0.0013
2155.00,-0.0011
2154.00,-0.0008
2153.00,-0.0006
2152.00,-0.0006
2151.00,-0.0008
2150.00,-0.0011
2149.00,-0.0014
2148.00,-0.0014
2147.00,-0.0012
2146.00,-0.0009
2145.00,-0.0006
2144.00,-0.0003
2143.00,-0.0002
2142.00,-0.0001
2141.00,-0.0000
2140.00,-0.0002
2139.00,-0.0004
2138.00,-0.0006
2137.00,-0.0008
2136.00,-0.0009
2135.00,-0.0010
2134.00,-0.0010
2133.00,-0.0009
2132.00,-0.0007
2131.00,-0.0007
2130.00,-0.0006
2129.00,-0.0005
2128.00,-0.0004
2127.00,-0.0003
2126.00,-0.0004
2125.00,-0.0004
2124.00,-0.0005
2123.00,-0.0005
2122.00,-0.0005
2121.00,-0.0005
2120.00,-0.0005
2119.00,-0.0005
2118.00,-0.0005
2117.00,-0.0005
2116.00,-0.0006
2115.00,-0.0008
2114.00,-0.0011
2113.00,-0.0012
2112.00,-0.0011
2111.00,-0.0009
2110.00,-0.0007
2109.00,-0.0004
2108.00,-0.0002
2107.00,-0.0001
2106.00,-0.0001
2105.00,-0.0002
2104.00,-0.0003
2103.00,-0.0003
2102.00,-0.0002
2101.00,-0.0002
2100.00,-0.0003
2099.00,-0.0005
2098.00,-0.0007
2097.00,-0.0008
2096.00,-0.0007
2095.00,-0.0006
2094.00,-0.0005
2093.00,-0.0004
2092.00,-0.0004
2091.00,-0.0005
2090.00,-0.0006
2089.00,-0.0007
2088.00,-0.0007
2087.00,-0.0007
2086.00,-0.0006
2085.00,-0.0005
2084.00,-0.0003
2083.00,-0.0002
2082.00,-0.0001
2081.00,-0.0002
2080.00,-0.0002
2079.00,-0.0003
2078.00,-0.0003
2077.00,-0.0003
2076.00,-0.0003
2075.00,-0.0003
2074.00,-0.0003
2073.00,-0.0003
2072.00,-0.0002
2071.00,-0.0001
2070.00,-0.0001
2069.00,-0.0002
2068.00,-0.0004
2067.00,-0.0006
2066.00,-0.0006
2065.00,-0.0005
2064.00,-0.0003
2063.00,-0.0001
2062.00,0.0000
2061.00,0.0000
2060.00,-0.0001
2059.00,-0.0003
2058.00,-0.0004
2057.00,-0.0004
2056.00,-0.0004
2055.00,-0.0004
2054.00,-0.0003
2053.00,-0.0001
2052.00,0.0001
2051.00,0.0002
2050.00,0.0000
2049.00,-0.0003
2048.00,-0.0004
2047.00,-0.0005
2046.00,-0.0003
2045.00,-0.0000
2044.00,0.0002
2043.00,0.0004
2042.00,0.0004
2041.00,0.0002
2040.00,-0.0000
2039.00,-0.0003
2038.00,-0.0004
2037.00,-0.0003
2036.00,-0.0002
2035.00,-0.0001
2034.00,-0.0002
2033.00,-0.0002
2032.00,0.0001
2031.00,0.0005
2030.00,0.0007
2029.00,0.0005
2028.00,0.0001
2027.00,-0.0002
2026.00,-0.0005
2025.00,-0.0008
2024.00,-0.0010
2023.00,-0.0011
2022.00,-0.0011
2021.00,-0.0010
2020.00,-0.0009
2019.00,-0.0010
2018.00,-0.0012
2017.00,-0.0014
2016.00,-0.0013
2015.00,-0.0011
2014.00,-0.0008
2013.00,-0.0005
2012.00,-0.0004
2011.00,-0.0002
2010.00,-0.0001
2009.00,-0.0001
2008.00,-0.0001
2007.00,-0.0002
2006.00,-0.0005
2005.00,-0.0008
2004.00,-0.0008
2003.00,-0.0006
2002.00,-0.0002
2001.00,0.0001
2000.00,0.0001
1999.00,-0.0001
1998.00,-0.0004
1997.00,-0.0004
1996.00,-0.0002
1995.00,0.0001
1994.00,0.0004
1993.00,0.0005
1992.00,0.0005
1991.00,0.0003
1990.00,0.0000
1989.00,-0.0002
1988.00,-0.0002
1987.00,-0.0002
1986.00,-0.0002
1985.00,-0.0002
1984.00,-0.0001
1983.00,-0.0000
1982.00,0.0000
1981.00,-0.0000
1980.00,-0.0003
1979.00,-0.0006
1978.00,-0.0011
1977.00,-0.0014
1976.00,-0.0013
1975.00,-0.0009
1974.00,-0.0004
1973.00,-0.0001
1972.00,-0.0002
1971.00,-0.0004
1970.00,-0.0006
1969.00,-0.0006
1968.00,-0.0006
1967.00,-0.0007
1966.00,-0.0009
1965.00,-0.0010
1964.00,-0.0009
1963.00,-0.0008
1962.00,-0.0007
1961.00,-0.0005
1960.00,-0.0004
1959.00,-0.0003
1958.00,-0.0003
1957.00,-0.0004
1956.00,-0.0005
1955.00,-0.0005
1954.00,-0.0005
1953.00,-0.0004
1952.00,-0.0003
1951.00,-0.0003
1950.00,-0.0004
1949.00,-0.0005
1948.00,-0.0006
1947.00,-0.0005
1946.00,-0.0006
1945.00,-0.0008
1944.00,-0.0010
1943.00,-0.0012
1942.00,-0.0012
1941.00,-0.0011
1940.00,-0.0010
1939.00,-0.0009
1938.00,-0.0009
1937.00,-0.0008
1936.00,-0.0008
1935.00,-0.0009
1934.00,-0.0010
1933.00,-0.0010
1932.00,-0.0009
1931.00,-0.0007
1930.00,-0.0005
1929.00,-0.0003
1928.00,-0.0001
1927.00,-0.0001
1926.00,-0.0001
1925.00,-0.0002
1924.00,-0.0003
1923.00,-0.0004
1922.00,-0.0005
1921.00,-0.0005
1920.00,-0.0006
1919.00,-0.0007
1918.00,-0.0007
1917.00,-0.0006
1916.00,-0.0005
1915.00,-0.0003
1914.00,-0.0003
1913.00,-0.0004
1912.00,-0.0005
1911.00,-0.0006
1910.00,-0.0007
1909.00,-0.0008
1908.00,-0.0009
1907.00,-0.0009
1906.00,-0.0008
1905.00,-0.0007
1904.00,-0.0006
1903.00,-0.0005
1902.00,-0.0005
1901.00,-0.0004
1900.00,-0.0004
1899.00,-0.0003
1898.00,-0.0003
1897.00,-0.0004
1896.00,-0.0006
1895.00,-0.0008
1894.00,-0.0008
1893.00,-0.0007
1892.00,-0.0005
1891.00,-0.0004
1890.00,-0.0003
1889.00,-0.0004
1888.00,-0.0005
1887.00,-0.0007
1886.00,-0.0007
1885.00,-0.0007
1884.00,-0.0006
1883.00,-0.0005
1882.00,-0.0004
1881.00,-0.0004
1880.00,-0.0003
1879.00,-0.0004
1878.00,-0.0005
1877.00,-0.0006
1876.00,-0.0006
1875.00,-0.0005
1874.00,-0.0004
1873.00,-0.0003
1872.00,-0.0003
1871.00,-0.0003
1870.00,-0.0004
1869.00,-0.0004
1868.00,-0.0004
1867.00,-0.0003
1866.00,-0.0003
1865.00,-0.0003
1864.00,-0.0004
1863.00,-0.0005
1862.00,-0.0006
1861.00,-0.0007
1860.00,-0.0007
1859.00,-0.0007
1858.00,-0.0006
1857.00,-0.0006
1856.00,-0.0005
1855.00,-0.0005
1854.00,-0.0005
1853.00,-0.0006
1852.00,-0.0006
1851.00,-0.0006
1850.00,-0.0006
1849.00,-0.0006
1848.00,-0.0006
1847.00,-0.0006
1846.00,-0.0005
1845.00,-0.0004
1844.00,-0.0004
1843.00,-0.0004
1842.00,-0.0004
1841.00,-0.0004
1840.00,-0.0004
1839.00,-0.0004
1838.00,-0.0005
1837.00,-0.0005
1836.00,-0.0005
1835.00,-0.0005
1834.00,-0.0005
1833.00,-0.0005
1832.00,-0.0004
1831.00,-0.0003
1830.00,-0.0002
1829.00,-0.0002
1828.00,-0.0003
1827.00,-0.0003
1826.00,-0.0004
1825.00,-0.0004
1824.00,-0.0005
1823.00,-0.0005
1822.00,-0.0005
1821.00,-0.0004
1820.00,-0.0005
1819.00,-0.0005
1818.00,-0.0006
1817.00,-0.0006
1816.00,-0.0006
1815.00,-0.0006
1814.00,-0.0006
1813.00,-0.0006
1812.00,-0.0006
1811.00,-0.0005
1810.00,-0.0005
1809.00,-0.0004
1808.00,-0.0004
1807.00,-0.0004
1806.00,-0.0004
1805.00,-0.0004
1804.00,-0.0004
1803.00,-0.0005
1802.00,-0.0005
1801.00,-0.0005
1800.00,-0.0005
1799.00,-0.0005
1798.00,-0.0004
1797.00,-0.0004
1796.00,-0.0004
1795.00,-0.0004
1794.00,-0.0004
1793.00,-0.0003
1792.00,-0.0002
1791.00,-0.0002
1790.00,-0.0003
1789.00,-0.0004
1788.00,-0.0005
1787.00,-0.0005
1786.00,-0.0004
1785.00,-0.0004
1784.00,-0.0004
1783.00,-0.0004
1782.00,-0.0004
1781.00,-0.0004
1780.00,-0.0005
1779.00,-0.0005
1778.00,-0.0005
1777.00,-0.0004
1776.00,-0.0004
1775.00,-0.0004
1774.00,-0.0004
1773.00,-0.0004
1772.00,-0.0004
1771.00,-0.0005
1770.00,-0.0005
1769.00,-0.0005
1768.00,-0.0005
1767.00,-0.0005
1766.00,-0.0005
1765.00,-0.0005
1764.00,-0.0005
1763.00,-0.0005
1762.00,-0.0006
1761.00,-0.0006
1760.00,-0.0006
1759.00,-0.0006
1758.00,-0.0006
1757.00,-0.0006
1756.00,-0.0005
1755.00,-0.0004
1754.00,-0.0003
1753.00,-0.0003
1752.00,-0.0004
1751.00,-0.0005
1750.00,-0.0005
1749.00,-0.0005
1748.00,-0.0005
1747.00,-0.0005
1746.00,-0.0005
1745.00,-0.0005
1744.00,-0.0005
1743.00,-0.0005
1742.00,-0.0006
1741.00,-0.0006
1740.00,-0.0006
1739.00,-0.0006
1738.00,-0.0006
1737.00,-0.0007
1736.00,-0.0007
1735.00,-0.0006
1734.00,-0.0006
1733.00,-0.0007
1732.00,-0.0008
1731.00,-0.0009
1730.00,-0.0010
1729.00,-0.0010
1728.00,-0.0010
1727.00,-0.0010
1726.00,-0.0010
1725.00,-0.0010
1724.00,-0.0010
1723.00,-0.0010
1722.00,-0.0009
1721.00,-0.0010
1720.00,-0.0010
1719.00,-0.0011
1718.00,-0.0011
1717.00,-0.0010
1716.00,-0.0010
1715.00,-0.0010
1714.00,-0.0009
1713.00,-0.0009
1712.00,-0.0008
1711.00,-0.0008
1710.00,-0.0008
1709.00,-0.0009
1708.00,-0.0009
1707.00,-0.0010
1706.00,-0.0011
1705.00,-0.0011
1704.00,-0.0010
1703.00,-0.0010
1702.00,-0.0009
1701.00,-0.0009
1700.00,-0.0009
1699.00,-0.0010
1698.00,-0.0009
1697.00,-0.0009
1696.00,-0.0010
1695.00,-0.0010
1694.00,-0.0010
1693.00,-0.0010
1692.00,-0.0010
1691.00,-0.0011
1690.00,-0.0010
1689.00,-0.0010
1688.00,-0.0011
1687.00,-0.0011
1686.00,-0.0012
1685.00,-0.0013
1684.00,-0.0014
1683.00,-0.0014
1682.00,-0.0014
1681.00,-0.0015
1680.00,-0.0015
1679.00,-0.0015
1678.00,-0.0014
1677.00,-0.0013
1676.00,-0.0012
1675.00,-0.0012
1674.00,-0.0012
1673.00,-0.0012
1672.00,-0.0013
1671.00,-0.0014
1670.00,-0.0014
1669.00,-0.0015
1668.00,-0.0016
1667.00,-0.0017
1666.00,-0.0017
1665.00,-0.0017
1664.00,-0.0017
1663.00,-0.0017
1662.00,-0.0017
1661.00,-0.0017
1660.00,-0.0016
1659.00,-0.0015
1658.00,-0.0015
1657.00,-0.0015
1656.00,-0.0017
1655.00,-0.0019
1654.00,-0.0021
1653.00,-0.0022
1652.00,-0.0020
1651.00,-0.0019
1650.00,-0.0018
1649.00,-0.0018
1648.00,-0.0018
1647.00,-0.0018
1646.00,-0.0018
1645.00,-0.0018
1644.00,-0.0018
1643.00,-0.0018
1642.00,-0.0019
1641.00,-0.0020
1640.00,-0.0020
1639.00,-0.0020
1638.00,-0.0020
1637.00,-0.0020
1636.00,-0.0020
1635.00,-0.0021
1634.00,-0.0022
1633.00,-0.0023
1632.00,-0.0025
1631.00,-0.0025
1630.00,-0.0025
1629.00,-0.0025
1628.00,-0.0025
1627.00,-0.0025
1626.00,-0.0024
1625.00,-0.0023
1624.00,-0.0023
1623.00,-0.0023
1622.00,-0.0024
1621.00,-0.0025
1620.00,-0.0025
1619.00,-0.0025
1618.00,-0.0026
1617.00,-0.0026
1616.00,-0.0027
1615.00,-0.0028
1614.00,-0.0028
1613.00,-0.0028
1612.00,-0.0029
1611.00,-0.0029
1610.00,-0.0030
1609.00,-0.0030
1608.00,-0.0031
1607.00,-0.0031
1606.00,-0.0030
1605.00,-0.0030
1604.00,-0.0030
1603.00,-0.0030
1602.00,-0.0031
1601.00,-0.0033
1600.00,-0.0034
1599.00,-0.0034
1598.00,-0.0034
1597.00,-0.0034
1596.00,-0.0034
1595.00,-0.0034
1594.00,-0.0034
1593.00,-0.0034
1592.00,-0.0034
1591.00,-0.0035
1590.00,-0.0035
1589.00,-0.0035
1588.00,-0.0035
1587.00,-0.0034
1586.00,-0.0034
1585.00,-0.0034
1584.00,-0.0035
1583.00,-0.0035
1582.00,-0.0035
1581.00,-0.0035
1580.00,-0.0035
1579.00,-0.0034
1578.00,-0.0033
1577.00,-0.0032
1576.00,-0.0033
1575.00,-0.0035
1574.00,-0.0037
1573.00,-0.0037
1572.00,-0.0037
1571.00,-0.0036
1570.00,-0.0036
1569.00,-0.0036
1568.00,-0.0035
1567.00,-0.0034
1566.00,-0.0034
1565.00,-0.0035
1564.00,-0.0036
1563.00,-0.0036
1562.00,-0.0037
1561.00,-0.0037
1560.00,-0.0036
1559.00,-0.0035
1558.00,-0.0036
1557.00,-0.0037
1556.00,-0.0036
1555.00,-0.0036
1554.00,-0.0035
1553.00,-0.0035
1552.00,-0.0034
1551.00,-0.0034
1550.00,-0.0034
1549.00,-0.0035
1548.00,-0.0035
1547.00,-0.0035
1546.00,-0.0034
1545.00,-0.0034
1544.00,-0.0033
1543.00,-0.0033
1542.00,-0.0033
1541.00,-0.0033
1540.00,-0.0034
1539.00,-0.0036
1538.00,-0.0036
1537.00,-0.0036
1536.00,-0.0035
1535.00,-0.0035
1534.00,-0.0034
1533.00,-0.0034
1532.00,-0.0034
1531.00,-0.0034
1530.00,-0.0033
1529.00,-0.0032
1528.00,-0.0031
1527.00,-0.0032
1526.00,-0.0032
1525.00,-0.0032
1524.00,-0.0032
1523.00,-0.0032
1522.00,-0.0033
1521.00,-0.0032
1520.00,-0.0032
1519.00,-0.0031
1518.00,-0.0030
1517.00,-0.0030
1516.00,-0.0031
1515.00,-0.0031
1514.00,-0.0031
1513.00,-0.0030
1512.00,-0.0030
1511.00,-0.0030
1510.00,-0.0030
1509.00,-0.0030
1508.00,-0.0029
1507.00,-0.0029
1506.00,-0.0030
1505.00,-0.0029
1504.00,-0.0028
1503.00,-0.0029
1502.00,-0.0029
1501.00,-0.0029
1500.00,-0.0029
1499.00,-0.0028
1498.00,-0.0026
1497.00,-0.0025
1496.00,-0.0025
1495.00,-0.0026
1494.00,-0.0027
1493.00,-0.0028
1492.00,-0.0029
1491.00,-0.0029
1490.00,-0.0029
1489.00,-0.0029
1488.00,-0.0030
1487.00,-0.0030
1486.00,-0.0030
1485.00,-0.0030
1484.00,-0.0030
1483.00,-0.0030
1482.00,-0.0030
1481.00,-0.0031
1480.00,-0.0031
1479.00,-0.0031
1478.00,-0.0031
1477.00,-0.0031
1476.00,-0.0031
1475.00,-0.0030
1474.00,-0.0031
1473.00,-0.0031
1472.00,-0.0031
1471.00,-0.0030
1470.00,-0.0029
1469.00,-0.0028
1468.00,-0.0027
1467.00,-0.0028
1466.00,-0.0029
1465.00,-0.0030
1464.00,-0.0032
1463.00,-0.0033
1462.00,-0.0033
1461.00,-0.0034
1460.00,-0.0034
1459.00,-0.0033
1458.00,-0.0032
1457.00,-0.0032
1456.00,-0.0033
1455.00,-0.0034
1454.00,-0.0034
1453.00,-0.0034
1452.00,-0.0033
1451.00,-0.0033
1450.00,-0.0033
1449.00,-0.0033
1448.00,-0.0033
1447.00,-0.0033
1446.00,-0.0032
1445.00,-0.0032
1444.00,-0.0031
1443.00,-0.0032
1442.00,-0.0032
1441.00,-0.0033
1440.00,-0.0033
1439.00,-0.0032
1438.00,-0.0032
1437.00,-0.0031
1436.00,-0.0032
1435.00,-0.0032
1434.00,-0.0032
1433.00,-0.0033
1432.00,-0.0033
1431.00,-0.0034
1430.00,-0.0035
1429.00,-0.0036
1428.00,-0.0036
1427.00,-0.0036
1426.00,-0.0035
1425.00,-0.0035
1424.00,-0.0036
1423.00,-0.0036
1422.00,-0.0036
1421.00,-0.0036
1420.00,-0.0036
1419.00,-0.0036
1418.00,-0.0036
1417.00,-0.0035
1416.00,-0.0035
1415.00,-0.0035
1414.00,-0.0036
1413.00,-0.0038
1412.00,-0.0039
1411.00,-0.0040
1410.00,-0.0041
1409.00,-0.0040
1408.00,-0.0040
1407.00,-0.0041
1406.00,-0.0041
1405.00,-0.0043
1404.00,-0.0044
1403.00,-0.0045
1402.00,-0.0046
1401.00,-0.0047
1400.00,-0.0048
1399.00,-0.0050
1398.00,-0.0050
1397.00,-0.0050
1396.00,-0.0050
1395.00,-0.0051
1394.00,-0.0052
1393.00,-0.0052
1392.00,-0.0053
1391.00,-0.0052
1390.00,-0.0052
1389.00,-0.0053
1388.00,-0.0053
1387.00,-0.0053
1386.00,-0.0053
1385.00,-0.0054
1384.00,-0.0054
1383.00,-0.0055
1382.00,-0.0054
1381.00,-0.0054
1380.00,-0.0053
1379.00,-0.0053
1378.00,-0.0052
1377.00,-0.0051
1376.00,-0.0050
1375.00,-0.0050
1374.00,-0.0050
1373.00,-0.0050
1372.00,-0.0050
1371.00,-0.0050
1370.00,-0.0049
1369.00,-0.0048
1368.00,-0.0048
1367.00,-0.0048
1366.00,-0.0048
1365.00,-0.0048
1364.00,-0.0048
1363.00,-0.0048
1362.00,-0.0048
1361.00,-0.0047
1360.00,-0.0047
1359.00,-0.0046
1358.00,-0.0045
1357.00,-0.0044
1356.00,-0.0043
1355.00,-0.0043
1354.00,-0.0043
1353.00,-0.0043
1352.00,-0.0043
1351.00,-0.0043
1350.00,-0.0044
1349.00,-0.0044
1348.00,-0.0043
1347.00,-0.0043
1346.00,-0.0043
1345.00,-0.0043
1344.00,-0.0043
1343.00,-0.0044
1342.00,-0.0043
1341.00,-0.0043
1340.00,-0.0043
1339.00,-0.0042
1338.00,-0.0042
1337.00,-0.0042
1336.00,-0.0042
1335.00,-0.0042
1334.00,-0.0041
1333.00,-0.0042
1332.00,-0.0042
1331.00,-0.0042
1330.00,-0.0041
1329.00,-0.0041
1328.00,-0.0040
1327.00,-0.0040
1326.00,-0.0040
1325.00,-0.0040
1324.00,-0.0040
1323.00,-0.0039
1322.00,-0.0038
1321.00,-0.0037
1320.00,-0.0038
1319.00,-0.0039
1318.00,-0.0040
1317.00,-0.0042
1316.00,-0.0042
1315.00,-0.0042
1314.00,-0.0041
1313.00,-0.0040
1312.00,-0.0039
1311.00,-0.0038
1310.00,-0.0037
1309.00,-0.0037
1308.00,-0.0038
1307.00,-0.0038
1306.00,-0.0039
1305.00,-0.0038
1304.00,-0.0038
1303.00,-0.0037
1302.00,-0.0037
1301.00,-0.0037
1300.00,-0.0037
1299.00,-0.0038
1298.00,-0.0039
1297.00,-0.0040
1296.00,-0.0040
1295.00,-0.0040
1294.00,-0.0040
1293.00,-0.0039
1292.00,-0.0038
1291.00,-0.0038
1290.00,-0.0038
1289.00,-0.0038
1288.00,-0.0038
1287.00,-0.0038
1286.00,-0.0039
1285.00,-0.0039
1284.00,-0.0039
1283.00,-0.0039
1282.00,-0.0038
1281.00,-0.0039
1280.00,-0.0039
1279.00,-0.0040
1278.00,-0.0041
1277.00,-0.0042
1276.00,-0.0042
1275.00,-0.0042
1274.00,-0.0042
1273.00,-0.0042
1272.00,-0.0043
1271.00,-0.0043
1270.00,-0.0044
1269.00,-0.0045
1268.00,-0.0045
1267.00,-0.0045
1266.00,-0.0044
1265.00,-0.0044
1264.00,-0.0044
1263.00,-0.0045
1262.00,-0.0046
1261.00,-0.0047
1260.00,-0.0047
1259.00,-0.0046
1258.00,-0.0045
1257.00,-0.0045
1256.00,-0.0045
1255.00,-0.0046
1254.00,-0.0046
1253.00,-0.0045
1252.00,-0.0044
1251.00,-0.0045
1250.00,-0.0046
1249.00,-0.0046
1248.00,-0.0045
1247.00,-0.0044
1246.00,-0.0043
1245.00,-0.0042
1244.00,-0.0042
1243.00,-0.0042
1242.00,-0.0043
1241.00,-0.0044
1240.00,-0.0044
1239.00,-0.0043
1238.00,-0.0042
1237.00,-0.0041
1236.00,-0.0040
1235.00,-0.0039
1234.00,-0.0039
1233.00,-0.0039
1232.00,-0.0039
1231.00,-0.0039
1230.00,-0.0039
1229.00,-0.0039
1228.00,-0.0039
1227.00,-0.0038
1226.00,-0.0038
1225.00,-0.0038
1224.00,-0.0039
1223.00,-0.0039
1222.00,-0.0038
1221.00,-0.0037
1220.00,-0.0035
1219.00,-0.0035
1218.00,-0.0034
1217.00,-0.0034
1216.00,-0.0034
1215.00,-0.0034
1214.00,-0.0034
1213.00,-0.0034
1212.00,-0.0034
1211.00,-0.0033
1210.00,-0.0032
1209.00,-0.0031
1208.00,-0.0031
1207.00,-0.0031
1206.00,-0.0032
1205.00,-0.0033
1204.00,-0.0033
1203.00,-0.0033
1202.00,-0.0033
1201.00,-0.0032
1200.00,-0.0031
1199.00,-0.0030
1198.00,-0.0029
1197.00,-0.0029
1196.00,-0.0029
1195.00,-0.0030
1194.00,-0.0030
1193.00,-0.0030
1192.00,-0.0030
1191.00,-0.0030
1190.00,-0.0030
1189.00,-0.0031
1188.00,-0.0031
1187.00,-0.0031
1186.00,-0.0031
1185.00,-0.0030
1184.00,-0.0031
1183.00,-0.0031
1182.00,-0.0032
1181.00,-0.0033
1180.00,-0.0034
1179.00,-0.0035
1178.00,-0.0035
1177.00,-0.0035
1176.00,-0.0034
1175.00,-0.0033
1174.00,-0.0032
1173.00,-0.0032
1172.00,-0.0032
1171.00,-0.0034
1170.00,-0.0035
1169.00,-0.0035
1168.00,-0.0035
1167.00,-0.0035
1166.00,-0.0034
1165.00,-0.0034
1164.00,-0.0034
1163.00,-0.0034
1162.00,-0.0034
1161.00,-0.0034
1160.00,-0.0034
1159.00,-0.0033
1158.00,-0.0033
1157.00,-0.0033
1156.00,-0.0033
1155.00,-0.0032
1154.00,-0.0032
1153.00,-0.0033
1152.00,-0.0035
1151.00,-0.0036
1150.00,-0.0037
1149.00,-0.0037
1148.00,-0.0037
1147.00,-0.0036
1146.00,-0.0034
1145.00,-0.0033
1144.00,-0.0032
1143.00,-0.0031
1142.00,-0.0030
1141.00,-0.0029
1140.00,-0.0030
1139.00,-0.0030
1138.00,-0.0030
1137.00,-0.0030
1136.00,-0.0029
1135.00,-0.0027
1134.00,-0.0026
1133.00,-0.0025
1132.00,-0.0025
1131.00,-0.0026
1130.00,-0.0026
1129.00,-0.0024
1128.00,-0.0023
1127.00,-0.0022
1126.00,-0.0024
1125.00,-0.0025
1124.00,-0.0025
1123.00,-0.0023
1122.00,-0.0020
1121.00,-0.0016
1120.00,-0.0014
1119.00,-0.0013
1118.00,-0.0014
1117.00,-0.0014
1116.00,-0.0014
1115.00,-0.0013
1114.00,-0.0013
1113.00,-0.0013
1112.00,-0.0014
1111.00,-0.0014
1110.00,-0.0013
1109.00,-0.0012
1108.00,-0.0011
1107.00,-0.0012
1106.00,-0.0014
1105.00,-0.0015
1104.00,-0.0015
1103.00,-0.0014
1102.00,-0.0013
1101.00,-0.0011
1100.00,-0.0011
1099.00,-0.0011
1098.00,-0.0011
1097.00,-0.0012
1096.00,-0.0013
1095.00,-0.0014
1094.00,-0.0015
1093.00,-0.0015
1092.00,-0.0015
1091.00,-0.0015
1090.00,-0.0016
1089.00,-0.0018
1088.00,-0.0019
1087.00,-0.0019
1086.00,-0.0018
1085.00,-0.0016
1084.00,-0.0016
1083.00,-0.0016
1082.00,-0.0016
1081.00,-0.0016
1080.00,-0.0016
1079.00,-0.0015
1078.00,-0.0013
1077.00,-0.0011
1076.00,-0.0011
1075.00,-0.0013
1074.00,-0.0016
1073.00,-0.0017
1072.00,-0.0017
1071.00,-0.0017
1070.00,-0.0018
1069.00,-0.0020
1068.00,-0.0021
1067.00,-0.0021
1066.00,-0.0019
1065.00,-0.0016
1064.00,-0.0012
1063.00,-0.0011
1062.00,-0.0011
1061.00,-0.0013
1060.00,-0.0016
1059.00,-0.0018
1058.00,-0.0018
1057.00,-0.0016
1056.00,-0.0015
1055.00,-0.0014
1054.00,-0.0013
1053.00,-0.0012
1052.00,-0.0011
1051.00,-0.0011
1050.00,-0.0010
1049.00,-0.0008
1048.00,-0.0007
1047.00,-0.0006
1046.00,-0.0005
1045.00,-0.0004
1044.00,-0.0004
1043.00,-0.0004
1042.00,-0.0005
1041.00,-0.0008
1040.00,-0.0009
1039.00,-0.0008
1038.00,-0.0007
1037.00,-0.0005
1036.00,-0.0005
1035.00,-0.0006
1034.00,-0.0007
1033.00,-0.0007
1032.00,-0.0007
1031.00,-0.0007
1030.00,-0.0008
1029.00,-0.0009
1028.00,-0.0011
1027.00,-0.0012
1026.00,-0.0013
1025.00,-0.0012
1024.00,-0.0012
1023.00,-0.0012
1022.00,-0.0013
1021.00,-0.0013
1020.00,-0.0014
1019.00,-0.0014
1018.00,-0.0015
1017.00,-0.0015
1016.00,-0.0013
1015.00,-0.0011
1014.00,-0.0009
1013.00,-0.0008
1012.00,-0.0009
1011.00,-0.0010
1010.00,-0.0011
1009.00,-0.0012
1008.00,-0.0014
1007.00,-0.0015
1006.00,-0.0016
1005.00,-0.0015
1004.00,-0.0014
1003.00,-0.0013
1002.00,-0.0013
1001.00,-0.0013
1000.00,-0.0016
999.00,-0.0018
998.00,-0.0021
997.00,-0.0021
996.00,-0.0019
995.00,-0.0018
994.00,-0.0017
993.00,-0.0018
992.00,-0.0020
991.00,-0.0022
990.00,-0.0023
989.00,-0.0024
988.00,-0.0024
987.00,-0.0024
986.00,-0.0023
985.00,-0.0023
984.00,-0.0024
983.00,-0.0025
982.00,-0.0026
981.00,-0.0026
980.00,-0.0026
979.00,-0.0027
978.00,-0.0029
977.00,-0.0032
976.00,-0.0034
975.00,-0.0036
974.00,-0.0035
973.00,-0.0034
972.00,-0.0033
971.00,-0.0034
970.00,-0.0035
969.00,-0.0037
968.00,-0.0040
967.00,-0.0042
966.00,-0.0043
965.00,-0.0045
964.00,-0.0044
963.00,-0.0043
962.00,-0.0041
961.00,-0.0041
960.00,-0.0042
959.00,-0.0044
958.00,-0.0045
957.00,-0.0045
956.00,-0.0045
955.00,-0.0045
954.00,-0.0047
953.00,-0.0048
952.00,-0.0047
951.00,-0.0046
950.00,-0.0045
949.00,-0.0044
948.00,-0.0044
947.00,-0.0044
946.00,-0.0044
945.00,-0.0045
944.00,-0.0046
943.00,-0.0047
942.00,-0.0048
941.00,-0.0048
940.00,-0.0047
939.00,-0.0045
938.00,-0.0043
937.00,-0.0043
936.00,-0.0043
935.00,-0.0044
934.00,-0.0044
933.00,-0.0042
932.00,-0.0040
931.00,-0.0038
930.00,-0.0038
929.00,-0.0038
928.00,-0.0039
927.00,-0.0039
926.00,-0.0039
925.00,-0.0038
924.00,-0.0037
923.00,-0.0035
922.00,-0.0034
921.00,-0.0032
920.00,-0.0031
919.00,-0.0031
918.00,-0.0032
917.00,-0.0033
916.00,-0.0033
915.00,-0.0033
914.00,-0.0033
913.00,-0.0034
912.00,-0.0034
911.00,-0.0033
910.00,-0.0034
909.00,-0.0036
908.00,-0.0039
907.00,-0.0041
906.00,-0.0041
905.00,-0.0039
904.00,-0.0036
903.00,-0.0032
902.00,-0.0029
901.00,-0.0029
900.00,-0.0031
899.00,-0.0032
898.00,-0.0033
897.00,-0.0032
896.00,-0.0032
895.00,-0.0033
894.00,-0.0035
893.00,-0.0036
892.00,-0.0037
891.00,-0.0038
890.00,-0.0038
889.00,-0.0038
888.00,-0.0037
887.00,-0.0038
886.00,-0.0041
885.00,-0.0042
884.00,-0.0041
883.00,-0.0038
882.00,-0.0035
881.00,-0.0034
880.00,-0.0034
879.00,-0.0035
878.00,-0.0036
877.00,-0.0039
876.00,-0.0042
875.00,-0.0045
874.00,-0.0046
873.00,-0.0046
872.00,-0.0046
871.00,-0.0044
870.00,-0.0043
869.00,-0.0043
868.00,-0.0044
867.00,-0.0046
866.00,-0.0048
865.00,-0.0048
864.00,-0.0048
863.00,-0.0046
862.00,-0.0043
861.00,-0.0041
860.00,-0.0039
859.00,-0.0040
858.00,-0.0042
857.00,-0.0046
856.00,-0.0048
855.00,-0.0048
854.00,-0.0047
853.00,-0.0047
852.00,-0.0047
851.00,-0.0046
850.00,-0.0045
849.00,-0.0043
848.00,-0.0041
847.00,-0.0040
846.00,-0.0038
845.00,-0.0036
844.00,-0.0036
843.00,-0.0038
842.00,-0.0041
841.00,-0.0044
840.00,-0.0047
839.00,-0.0050
838.00,-0.0051
837.00,-0.0051
836.00,-0.0049
835.00,-0.0049
834.00,-0.0049
833.00,-0.0049
832.00,-0.0050
831.00,-0.0050
830.00,-0.0051
829.00,-0.0052
828.00,-0.0052
827.00,-0.0051
826.00,-0.0049
825.00,-0.0046
824.00,-0.0043
823.00,-0.0042
822.00,-0.0043
821.00,-0.0044
820.00,-0.0045
819.00,-0.0045
818.00,-0.0047
817.00,-0.0051
816.00,-0.0055
815.00,-0.0057
814.00,-0.0056
813.00,-0.0053
812.00,-0.0050
811.00,-0.0047
810.00,-0.0044
809.00,-0.0043
808.00,-0.0043
807.00,-0.0046
806.00,-0.0049
805.00,-0.0053
804.00,-0.0055
803.00,-0.0055
802.00,-0.0052
801.00,-0.0048
800.00,-0.0044
799.00,-0.0041
798.00,-0.0042
797.00,-0.0044
796.00,-0.0046
795.00,-0.0048
794.00,-0.0049
793.00,-0.0050
792.00,-0.0050
791.00,-0.0049
790.00,-0.0047
789.00,-0.0046
788.00,-0.0046
787.00,-0.0046
786.00,-0.0044
785.00,-0.0042
784.00,-0.0040
783.00,-0.0041
782.00,-0.0043
781.00,-0.0046
780.00,-0.0049
779.00,-0.0051
778.00,-0.0050
777.00,-0.0047
776.00,-0.0044
775.00,-0.0043
774.00,-0.0045
773.00,-0.0048
772.00,-0.0050
771.00,-0.0051
770.00,-0.0050
769.00,-0.0050
768.00,-0.0050
767.00,-0.0053
766.00,-0.0055
765.00,-0.0057
764.00,-0.0057
763.00,-0.0056
762.00,-0.0057
761.00,-0.0059
760.00,-0.0060
759.00,-0.0058
758.00,-0.0056
757.00,-0.0054
756.00,-0.0054
755.00,-0.0055
754.00,-0.0055
753.00,-0.0054
752.00,-0.0053
751.00,-0.0051
750.00,-0.0050
749.00,-0.0050
748.00,-0.0051
747.00,-0.0052
746.00,-0.0053
745.00,-0.0055
744.00,-0.0057
743.00,-0.0059
742.00,-0.0059
741.00,-0.0060
740.00,-0.0062
739.00,-0.0064
738.00,-0.0066
737.00,-0.0067
736.00,-0.0068
735.00,-0.0068
734.00,-0.0069
733.00,-0.0069
732.00,-0.0069
731.00,-0.0069
730.00,-0.0068
729.00,-0.0067
728.00,-0.0066
727.00,-0.0065
726.00,-0.0063
725.00,-0.0063
724.00,-0.0063
723.00,-0.0064
722.00,-0.0064
721.00,-0.0064
720.00,-0.0063
719.00,-0.0064
718.00,-0.0064
717.00,-0.0066
716.00,-0.0068
715.00,-0.0069
714.00,-0.0069
713.00,-0.0067
712.00,-0.0065
711.00,-0.0066
710.00,-0.0070
709.00,-0.0075
708.00,-0.0079
707.00,-0.0080
706.00,-0.0079
705.00,-0.0074
704.00,-0.0068
703.00,-0.0062
702.00,-0.0060
701.00,-0.0062
700.00,-0.0066
699.00,-0.0070
698.00,-0.0071
697.00,-0.0071
696.00,-0.0070
695.00,-0.0070
694.00,-0.0069
693.00,-0.0067
692.00,-0.0065
691.00,-0.0062
690.00,-0.0059
689.00,-0.0057
688.00,-0.0058
687.00,-0.0063
686.00,-0.0070
685.00,-0.0076
684.00,-0.0081
683.00,-0.0082
682.00,-0.0081
681.00,-0.0076
680.00,-0.0071
679.00,-0.0068
678.00,-0.0068
677.00,-0.0070
676.00,-0.0074
675.00,-0.0077
674.00,-0.0080
673.00,-0.0079
672.00,-0.0074
671.00,-0.0067
670.00,-0.0060
669.00,-0.0060
668.00,-0.0068
667.00,-0.0074
666.00,-0.0072
665.00,-0.0065
664.00,-0.0060
663.00,-0.0058
662.00,-0.0062
661.00,-0.0070
660.00,-0.0079
659.00,-0.0085
658.00,-0.0082
657.00,-0.0072
656.00,-0.0060
655.00,-0.0053
654.00,-0.0054
653.00,-0.0063
652.00,-0.0075
651.00,-0.0088
650.00,-0.0096
