Created as New Dataset,Monday, April 03 2023
cm-1,A
4000.00,0.0051
3999.00,0.0051
3998.00,0.0051
3997.00,0.0051
3996.00,0.0050
3995.00,0.0050
3994.00,0.0050
3993.00,0.0050
3992.00,0.0050
3991.00,0.0050
3990.00,0.0050
3989.00,0.0050
3988.00,0.0049
3987.00,0.0049
3986.00,0.0050
3985.00,0.0050
3984.00,0.0050
3983.00,0.0050
3982.00,0.0050
3981.00,0.0050
3980.00,0.0049
3979.00,0.0049
3978.00,0.0049
3977.00,0.0049
3976.00,0.0049
3975.00,0.0048
3974.00,0.0048
3973.00,0.0048
3972.00,0.0049
3971.00,0.0049
3970.00,0.0050
3969.00,0.0050
3968.00,0.0050
3967.00,0.0049
3966.00,0.0049
3965.00,0.0048
3964.00,0.0049
3963.00,0.0049
3962.00,0.0049
3961.00,0.0049
3960.00,0.0049
3959.00,0.0048
3958.00,0.0048
3957.00,0.0048
3956.00,0.0048
3955.00,0.0048
3954.00,0.0047
3953.00,0.0047
3952.00,0.0047
3951.00,0.0048
3950.00,0.0049
3949.00,0.0049
3948.00,0.0050
3947.00,0.0050
3946.00,0.0049
3945.00,0.0049
3944.00,0.0048
3943.00,0.0047
3942.00,0.0046
3941.00,0.0046
3940.00,0.0047
3939.00,0.0047
3938.00,0.0047
3937.00,0.0047
3936.00,0.0047
3935.00,0.0047
3934.00,0.0047
3933.00,0.0047
3932.00,0.0047
3931.00,0.0047
3930.00,0.0046
3929.00,0.0046
3928.00,0.0047
3927.00,0.0047
3926.00,0.0047
3925.00,0.0047
3924.00,0.0047
3923.00,0.0047
3922.00,0.0047
3921.00,0.0047
3920.00,0.0047
3919.00,0.0048
3918.00,0.0048
3917.00,0.0048
3916.00,0.0047
3915.00,0.0047
3914.00,0.0046
3913.00,0.0046
3912.00,0.0046
3911.00,0.0045
3910.00,0.0045
3909.00,0.0045
3908.00,0.0045
3907.00,0.0045
3906.00,0.0045
3905.00,0.0045
3904.00,0.0045
3903.00,0.0045
3902.00,0.0046
3901.00,0.0047
3900.00,0.0047
3899.00,0.0046
3898.00,0.0046
3897.00,0.0046
3896.00,0.0046
3895.00,0.0046
3894.00,0.0046
3893.00,0.0046
3892.00,0.0045
3891.00,0.0044
3890.00,0.0043
3889.00,0.0044
3888.00,0.0044
3887.00,0.0044
3886.00,0.0043
3885.00,0.0043
3884.00,0.0043
3883.00,0.0043
3882.00,0.0043
3881.00,0.0042
3880.00,0.0041
3879.00,0.0042
3878.00,0.0044
3877.00,0.0046
3876.00,0.0047
3875.00,0.0046
3874.00,0.0044
3873.00,0.0044
3872.00,0.0044
3871.00,0.0044
3870.00,0.0044
3869.00,0.0043
3868.00,0.0043
3867.00,0.0045
3866.00,0.0045
3865.00,0.0046
3864.00,0.0046
3863.00,0.0046
3862.00,0.0046
3861.00,0.0046
3860.00,0.0046
3859.00,0.0045
3858.00,0.0042
3857.00,0.0040
3856.00,0.0038
3855.00,0.0039
3854.00,0.0041
3853.00,0.0041
3852.00,0.0041
3851.00,0.0042
3850.00,0.0043
3849.00,0.0043
3848.00,0.0043
3847.00,0.0043
3846.00,0.0043
3845.00,0.0043
3844.00,0.0043
3843.00,0.0043
3842.00,0.0043
3841.00,0.0044
3840.00,0.0045
3839.00,0.0045
3838.00,0.0044
3837.00,0.0043
3836.00,0.0043
3835.00,0.0043
3834.00,0.0044
3833.00,0.0044
3832.00,0.0044
3831.00,0.0044
3830.00,0.0044
3829.00,0.0044
3828.00,0.0044
3827.00,0.0042
3826.00,0.0041
3825.00,0.0042
3824.00,0.0043
3823.00,0.0045
3822.00,0.0046
3821.00,0.0045
3820.00,0.0043
3819.00,0.0043
3818.00,0.0044
3817.00,0.0043
3816.00,0.0043
3815.00,0.0042
3814.00,0.0043
3813.00,0.0044
3812.00,0.0043
3811.00,0.0042
3810.00,0.0041
3809.00,0.0041
3808.00,0.0042
3807.00,0.0042
3806.00,0.0043
3805.00,0.0044
3804.00,0.0046
3803.00,0.0046
3802.00,0.0045
3801.00,0.0044
3800.00,0.0043
3799.00,0.0043
3798.00,0.0043
3797.00,0.0042
3796.00,0.0041
3795.00,0.0041
3794.00,0.0041
3793.00,0.0042
3792.00,0.0042
3791.00,0.0042
3790.00,0.0042
3789.00,0.0042
3788.00,0.0043
3787.00,0.0043
3786.00,0.0043
3785.00,0.0043
3784.00,0.0042
3783.00,0.0042
3782.00,0.0042
3781.00,0.0042
3780.00,0.0042
3779.00,0.0041
3778.00,0.0041
3777.00,0.0041
3776.00,0.0041
3775.00,0.0041
3774.00,0.0040
3773.00,0.0040
3772.00,0.0040
3771.00,0.0040
3770.00,0.0040
3769.00,0.0039
3768.00,0.0040
3767.00,0.0041
3766.00,0.0041
3765.00,0.0041
3764.00,0.0042
3763.00,0.0042
3762.00,0.0043
3761.00,0.0043
3760.00,0.0043
3759.00,0.0042
3758.00,0.0040
3757.00,0.0039
3756.00,0.0039
3755.00,0.0038
3754.00,0.0038
3753.00,0.0039
3752.00,0.0040
3751.00,0.0042
3750.00,0.0042
3749.00,0.0042
3748.00,0.0043
3747.00,0.0043
3746.00,0.0043
3745.00,0.0041
3744.00,0.0039
3743.00,0.0039
3742.00,0.0041
3741.00,0.0043
3740.00,0.0043
3739.00,0.0043
3738.00,0.0043
3737.00,0.0044
3736.00,0.0043
3735.00,0.0042
3734.00,0.0041
3733.00,0.0040
3732.00,0.0039
3731.00,0.0039
3730.00,0.0040
3729.00,0.0040
3728.00,0.0041
3727.00,0.0040
3726.00,0.0040
3725.00,0.0040
3724.00,0.0040
3723.00,0.0040
3722.00,0.0040
3721.00,0.0040
3720.00,0.0040
3719.00,0.0041
3718.00,0.0040
3717.00,0.0040
3716.00,0.0040
3715.00,0.0040
3714.00,0.0041
3713.00,0.0043
3712.00,0.0044
3711.00,0.0043
3710.00,0.0041
3709.00,0.0041
3708.00,0.0041
3707.00,0.0042
3706.00,0.0043
3705.00,0.0044
3704.00,0.0044
3703.00,0.0043
3702.00,0.0043
3701.00,0.0042
3700.00,0.0043
3699.00,0.0044
3698.00,0.0045
3697.00,0.0045
3696.00,0.0044
3695.00,0.0043
3694.00,0.0043
3693.00,0.0043
3692.00,0.0044
3691.00,0.0045
3690.00,0.0047
3689.00,0.0046
3688.00,0.0045
3687.00,0.0045
3686.00,0.0045
3685.00,0.0045
3684.00,0.0044
3683.00,0.0044
3682.00,0.0043
3681.00,0.0042
3680.00,0.0041
3679.00,0.0039
3678.00,0.0038
3677.00,0.0039
3676.00,0.0038
3675.00,0.0037
3674.00,0.0038
3673.00,0.0040
3672.00,0.0043
3671.00,0.0044
3670.00,0.0045
3669.00,0.0045
3668.00,0.0045
3667.00,0.0045
3666.00,0.0046
3665.00,0.0046
3664.00,0.0047
3663.00,0.0047
3662.00,0.0048
3661.00,0.0048
3660.00,0.0049
3659.00,0.0050
3658.00,0.0052
3657.00,0.0052
3656.00,0.0053
3655.00,0.0053
3654.00,0.0054
3653.00,0.0054
3652.00,0.0054
3651.00,0.0054
3650.00,0.0055
3649.00,0.0056
3648.00,0.0055
3647.00,0.0055
3646.00,0.0056
3645.00,0.0058
3644.00,0.0059
3643.00,0.0060
3642.00,0.0061
3641.00,0.0061
3640.00,0.0062
3639.00,0.0063
3638.00,0.0063
3637.00,0.0064
3636.00,0.0065
3635.00,0.0065
3634.00,0.0065
3633.00,0.0064
3632.00,0.0064
3631.00,0.0065
3630.00,0.0067
3629.00,0.0070
3628.00,0.0071
3627.00,0.0071
3626.00,0.0071
3625.00,0.0071
3624.00,0.0070
3623.00,0.0069
3622.00,0.0070
3621.00,0.0072
3620.00,0.0074
3619.00,0.0075
3618.00,0.0076
3617.00,0.0077
3616.00,0.0078
3615.00,0.0078
3614.00,0.0077
3613.00,0.0076
3612.00,0.0076
3611.00,0.0077
3610.00,0.0078
3609.00,0.0080
3608.00,0.0081
3607.00,0.0081
3606.00,0.0081
3605.00,0.0081
3604.00,0.0080
3603.00,0.0081
3602.00,0.0082
3601.00,0.0083
3600.00,0.0084
3599.00,0.0084
3598.00,0.0084
3597.00,0.0083
3596.00,0.0083
3595.00,0.0083
3594.00,0.0082
3593.00,0.0082
3592.00,0.0081
3591.00,0.0081
3590.00,0.0082
3589.00,0.0083
3588.00,0.0085
3587.00,0.0086
3586.00,0.0087
3585.00,0.0088
3584.00,0.0088
3583.00,0.0089
3582.00,0.0089
3581.00,0.0089
3580.00,0.0088
3579.00,0.0089
3578.00,0.0089
3577.00,0.0089
3576.00,0.0090
3575.00,0.0090
3574.00,0.0090
3573.00,0.0090
3572.00,0.0090
3571.00,0.0089
3570.00,0.0089
3569.00,0.0090
3568.00,0.0092
3567.00,0.0094
3566.00,0.0094
3565.00,0.0094
3564.00,0.0094
3563.00,0.0095
3562.00,0.0095
3561.00,0.0095
3560.00,0.0096
3559.00,0.0096
3558.00,0.0097
3557.00,0.0097
3556.00,0.0098
3555.00,0.0099
3554.00,0.0099
3553.00,0.0100
3552.00,0.0100
3551.00,0.0101
3550.00,0.0101
3549.00,0.0102
3548.00,0.0103
3547.00,0.0104
3546.00,0.0105
3545.00,0.0105
3544.00,0.0105
3543.00,0.0105
3542.00,0.0105
3541.00,0.0104
3540.00,0.0103
3539.00,0.0102
3538.00,0.0101
3537.00,0.0101
3536.00,0.0102
3535.00,0.0103
3534.00,0.0105
3533.00,0.0106
3532.00,0.0106
3531.00,0.0107
3530.00,0.0107
3529.00,0.0106
3528.00,0.0106
3527.00,0.0106
3526.00,0.0107
3525.00,0.0108
3524.00,0.0110
3523.00,0.0110
3522.00,0.0111
3521.00,0.0110
3520.00,0.0109
3519.00,0.0108
3518.00,0.0108
3517.00,0.0107
3516.00,0.0107
3515.00,0.0108
3514.00,0.0109
3513.00,0.0110
3512.00,0.0111
3511.00,0.0111
3510.00,0.0111
3509.00,0.0111
3508.00,0.0111
3507.00,0.0111
3506.00,0.0111
3505.00,0.0112
3504.00,0.0113
3503.00,0.0114
3502.00,0.0114
3501.00,0.0115
3500.00,0.0115
3499.00,0.0115
3498.00,0.0116
3497.00,0.0117
3496.00,0.0117
3495.00,0.0117
3494.00,0.0116
3493.00,0.0116
3492.00,0.0116
3491.00,0.0116
3490.00,0.0116
3489.00,0.0116
3488.00,0.0117
3487.00,0.0117
3486.00,0.0118
3485.00,0.0118
3484.00,0.0118
3483.00,0.0118
3482.00,0.0118
3481.00,0.0119
3480.00,0.0119
3479.00,0.0119
3478.00,0.0119
3477.00,0.0120
3476.00,0.0120
3475.00,0.0121
3474.00,0.0122
3473.00,0.0122
3472.00,0.0123
3471.00,0.0123
3470.00,0.0124
3469.00,0.0124
3468.00,0.0124
3467.00,0.0124
3466.00,0.0124
3465.00,0.0124
3464.00,0.0124
3463.00,0.0124
3462.00,0.0123
3461.00,0.0122
3460.00,0.0123
3459.00,0.0124
3458.00,0.0125
3457.00,0.0125
3456.00,0.0125
3455.00,0.0124
3454.00,0.0124
3453.00,0.0124
3452.00,0.0125
3451.00,0.0126
3450.00,0.0126
3449.00,0.0127
3448.00,0.0127
3447.00,0.0128
3446.00,0.0128
3445.00,0.0128
3444.00,0.0128
3443.00,0.0128
3442.00,0.0128
3441.00,0.0127
3440.00,0.0126
3439.00,0.0126
3438.00,0.0126
3437.00,0.0126
3436.00,0.0127
3435.00,0.0127
3434.00,0.0127
3433.00,0.0128
3432.00,0.0128
3431.00,0.0129
3430.00,0.0129
3429.00,0.0129
3428.00,0.0129
3427.00,0.0129
3426.00,0.0130
3425.00,0.0131
3424.00,0.0132
3423.00,0.0133
3422.00,0.0133
3421.00,0.0133
3420.00,0.0133
3419.00,0.0133
3418.00,0.0133
3417.00,0.0133
3416.00,0.0133
3415.00,0.0132
3414.00,0.0132
3413.00,0.0133
3412.00,0.0133
3411.00,0.0134
3410.00,0.0134
3409.00,0.0134
3408.00,0.0134
3407.00,0.0134
3406.00,0.0134
3405.00,0.0134
3404.00,0.0133
3403.00,0.0133
3402.00,0.0134
3401.00,0.0135
3400.00,0.0135
3399.00,0.0136
3398.00,0.0136
3397.00,0.0135
3396.00,0.0135
3395.00,0.0134
3394.00,0.0135
3393.00,0.0135
3392.00,0.0136
3391.00,0.0136
3390.00,0.0137
3389.00,0.0137
3388.00,0.0137
3387.00,0.0136
3386.00,0.0136
3385.00,0.0137
3384.00,0.0137
3383.00,0.0138
3382.00,0.0138
3381.00,0.0138
3380.00,0.0138
3379.00,0.0138
3378.00,0.0139
3377.00,0.0138
3376.00,0.0138
3375.00,0.0138
3374.00,0.0137
3373.00,0.0137
3372.00,0.0137
3371.00,0.0136
3370.00,0.0136
3369.00,0.0137
3368.00,0.0137
3367.00,0.0138
3366.00,0.0138
3365.00,0.0137
3364.00,0.0137
3363.00,0.0138
3362.00,0.0139
3361.00,0.0140
3360.00,0.0141
3359.00,0.0141
3358.00,0.0140
3357.00,0.0140
3356.00,0.0140
3355.00,0.0140
3354.00,0.0140
3353.00,0.0140
3352.00,0.0141
3351.00,0.0141
3350.00,0.0141
3349.00,0.0141
3348.00,0.0141
3347.00,0.0140
3346.00,0.0139
3345.00,0.0139
3344.00,0.0138
3343.00,0.0138
3342.00,0.0139
3341.00,0.0140
3340.00,0.0140
3339.00,0.0141
3338.00,0.0142
3337.00,0.0141
3336.00,0.0141
3335.00,0.0140
3334.00,0.0140
3333.00,0.0140
3332.00,0.0140
3331.00,0.0139
3330.00,0.0139
3329.00,0.0138
3328.00,0.0138
3327.00,0.0139
3326.00,0.0139
3325.00,0.0140
3324.00,0.0140
3323.00,0.0140
3322.00,0.0140
3321.00,0.0139
3320.00,0.0139
3319.00,0.0139
3318.00,0.0139
3317.00,0.0139
3316.00,0.0139
3315.00,0.0138
3314.00,0.0138
3313.00,0.0138
3312.00,0.0138
3311.00,0.0138
3310.00,0.0138
3309.00,0.0138
3308.00,0.0139
3307.00,0.0139
3306.00,0.0139
3305.00,0.0139
3304.00,0.0139
3303.00,0.0139
3302.00,0.0139
3301.00,0.0139
3300.00,0.0139
3299.00,0.0138
3298.00,0.0139
3297.00,0.0139
3296.00,0.0140
3295.00,0.0140
3294.00,0.0140
3293.00,0.0139
3292.00,0.0138
3291.00,0.0138
3290.00,0.0138
3289.00,0.0138
3288.00,0.0138
3287.00,0.0139
3286.00,0.0139
3285.00,0.0140
3284.00,0.0140
3283.00,0.0140
3282.00,0.0140
3281.00,0.0139
3280.00,0.0139
3279.00,0.0139
3278.00,0.0139
3277.00,0.0139
3276.00,0.0139
3275.00,0.0139
3274.00,0.0139
3273.00,0.0139
3272.00,0.0139
3271.00,0.0140
3270.00,0.0140
3269.00,0.0141
3268.00,0.0141
3267.00,0.0141
3266.00,0.0140
3265.00,0.0139
3264.00,0.0138
3263.00,0.0138
3262.00,0.0137
3261.00,0.0138
3260.00,0.0138
3259.00,0.0138
3258.00,0.0138
3257.00,0.0138
3256.00,0.0137
3255.00,0.0137
3254.00,0.0137
3253.00,0.0138
3252.00,0.0138
3251.00,0.0138
3250.00,0.0138
3249.00,0.0137
3248.00,0.0137
3247.00,0.0137
3246.00,0.0137
3245.00,0.0137
3244.00,0.0137
3243.00,0.0137
3242.00,0.0137
3241.00,0.0137
3240.00,0.0137
3239.00,0.0137
3238.00,0.0137
3237.00,0.0138
3236.00,0.0138
3235.00,0.0139
3234.00,0.0139
3233.00,0.0138
3232.00,0.0138
3231.00,0.0138
3230.00,0.0137
3229.00,0.0137
3228.00,0.0136
3227.00,0.0136
3226.00,0.0136
3225.00,0.0135
3224.00,0.0135
3223.00,0.0135
3222.00,0.0135
3221.00,0.0135
3220.00,0.0135
3219.00,0.0134
3218.00,0.0134
3217.00,0.0135
3216.00,0.0136
3215.00,0.0136
3214.00,0.0136
3213.00,0.0135
3212.00,0.0135
3211.00,0.0134
3210.00,0.0133
3209.00,0.0134
3208.00,0.0134
3207.00,0.0134
3206.00,0.0134
3205.00,0.0134
3204.00,0.0135
3203.00,0.0135
3202.00,0.0135
3201.00,0.0135
3200.00,0.0135
3199.00,0.0135
3198.00,0.0135
3197.00,0.0135
3196.00,0.0134
3195.00,0.0134
3194.00,0.0134
3193.00,0.0134
3192.00,0.0133
3191.00,0.0133
3190.00,0.0132
3189.00,0.0131
3188.00,0.0131
3187.00,0.0130
3186.00,0.0130
3185.00,0.0131
3184.00,0.0131
3183.00,0.0132
3182.00,0.0133
3181.00,0.0133
3180.00,0.0132
3179.00,0.0131
3178.00,0.0130
3177.00,0.0129
3176.00,0.0129
3175.00,0.0129
3174.00,0.0130
3173.00,0.0130
3172.00,0.0130
3171.00,0.0130
3170.00,0.0130
3169.00,0.0129
3168.00,0.0129
3167.00,0.0129
3166.00,0.0129
3165.00,0.0130
3164.00,0.0130
3163.00,0.0131
3162.00,0.0130
3161.00,0.0129
3160.00,0.0128
3159.00,0.0127
3158.00,0.0126
3157.00,0.0126
3156.00,0.0126
3155.00,0.0127
3154.00,0.0128
3153.00,0.0129
3152.00,0.0129
3151.00,0.0128
3150.00,0.0128
3149.00,0.0128
3148.00,0.0127
3147.00,0.0127
3146.00,0.0127
3145.00,0.0127
3144.00,0.0127
3143.00,0.0127
3142.00,0.0126
3141.00,0.0126
3140.00,0.0126
3139.00,0.0125
3138.00,0.0126
3137.00,0.0126
3136.00,0.0126
3135.00,0.0126
3134.00,0.0125
3133.00,0.0125
3132.00,0.0124
3131.00,0.0124
3130.00,0.0124
3129.00,0.0124
3128.00,0.0124
3127.00,0.0124
3126.00,0.0124
3125.00,0.0124
3124.00,0.0124
3123.00,0.0124
3122.00,0.0123
3121.00,0.0123
3120.00,0.0123
3119.00,0.0123
3118.00,0.0124
3117.00,0.0124
3116.00,0.0124
3115.00,0.0123
3114.00,0.0123
3113.00,0.0123
3112.00,0.0123
3111.00,0.0123
3110.00,0.0123
3109.00,0.0122
3108.00,0.0122
3107.00,0.0122
3106.00,0.0123
3105.00,0.0123
3104.00,0.0123
3103.00,0.0123
3102.00,0.0122
3101.00,0.0121
3100.00,0.0121
3099.00,0.0121
3098.00,0.0120
3097.00,0.0120
3096.00,0.0121
3095.00,0.0122
3094.00,0.0122
3093.00,0.0122
3092.00,0.0122
3091.00,0.0122
3090.00,0.0121
3089.00,0.0120
3088.00,0.0119
3087.00,0.0119
3086.00,0.0119
3085.00,0.0120
3084.00,0.0121
3083.00,0.0121
3082.00,0.0120
3081.00,0.0120
3080.00,0.0120
3079.00,0.0120
3078.00,0.0119
3077.00,0.0119
3076.00,0.0119
3075.00,0.0119
3074.00,0.0119
3073.00,0.0119
3072.00,0.0119
3071.00,0.0119
3070.00,0.0119
3069.00,0.0120
3068.00,0.0120
3067.00,0.0120
3066.00,0.0119
3065.00,0.0118
3064.00,0.0117
3063.00,0.0116
3062.00,0.0116
3061.00,0.0117
3060.00,0.0118
3059.00,0.0118
3058.00,0.0118
3057.00,0.0118
3056.00,0.0118
3055.00,0.0117
3054.00,0.0117
3053.00,0.0116
3052.00,0.0116
3051.00,0.0117
3050.00,0.0117
3049.00,0.0117
3048.00,0.0117
3047.00,0.0117
3046.00,0.0117
3045.00,0.0117
3044.00,0.0116
3043.00,0.0115
3042.00,0.0114
3041.00,0.0113
3040.00,0.0113
3039.00,0.0113
3038.00,0.0113
3037.00,0.0114
3036.00,0.0114
3035.00,0.0114
3034.00,0.0115
3033.00,0.0115
3032.00,0.0115
3031.00,0.0114
3030.00,0.0113
3029.00,0.0113
3028.00,0.0112
3027.00,0.0112
3026.00,0.0112
3025.00,0.0112
3024.00,0.0111
3023.00,0.0111
3022.00,0.0111
3021.00,0.0111
3020.00,0.0110
3019.00,0.0109
3018.00,0.0109
3017.00,0.0108
3016.00,0.0108
3015.00,0.0108
3014.00,0.0107
3013.00,0.0106
3012.00,0.0105
3011.00,0.0104
3010.00,0.0103
3009.00,0.0102
3008.00,0.0100
3007.00,0.0098
3006.00,0.0097
3005.00,0.0096
3004.00,0.0095
3003.00,0.0093
3002.00,0.0091
3001.00,0.0090
3000.00,0.0088
2999.00,0.0087
2998.00,0.0085
2997.00,0.0084
2996.00,0.0083
2995.00,0.0082
2994.00,0.0082
2993.00,0.0081
2992.00,0.0080
2991.00,0.0080
2990.00,0.0079
2989.00,0.0078
2988.00,0.0077
2987.00,0.0075
2986.00,0.0072
2985.00,0.0068
2984.00,0.0063
2983.00,0.0060
2982.00,0.0058
2981.00,0.0058
2980.00,0.0059
2979.00,0.0062
2978.00,0.0064
2977.00,0.0066
2976.00,0.0068
2975.00,0.0069
2974.00,0.0068
2973.00,0.0067
2972.00,0.0067
2971.00,0.0067
2970.00,0.0069
2969.00,0.0071
2968.00,0.0073
2967.00,0.0075
2966.00,0.0076
2965.00,0.0077
2964.00,0.0078
2963.00,0.0079
2962.00,0.0080
2961.00,0.0081
2960.00,0.0081
2959.00,0.0080
2958.00,0.0080
2957.00,0.0081
2956.00,0.0082
2955.00,0.0084
2954.00,0.0085
2953.00,0.0086
2952.00,0.0087
2951.00,0.0088
2950.00,0.0089
2949.00,0.0090
2948.00,0.0090
2947.00,0.0090
2946.00,0.0091
2945.00,0.0091
2944.00,0.0092
2943.00,0.0093
2942.00,0.0094
2941.00,0.0094
2940.00,0.0094
2939.00,0.0094
2938.00,0.0093
2937.00,0.0093
2936.00,0.0093
2935.00,0.0093
2934.00,0.0093
2933.00,0.0093
2932.00,0.0093
2931.00,0.0093
2930.00,0.0093
2929.00,0.0093
2928.00,0.0092
2927.00,0.0092
2926.00,0.0092
2925.00,0.0092
2924.00,0.0092
2923.00,0.0092
2922.00,0.0091
2921.00,0.0091
2920.00,0.0090
2919.00,0.0089
2918.00,0.0089
2917.00,0.0088
2916.00,0.0089
2915.00,0.0089
2914.00,0.0089
2913.00,0.0089
2912.00,0.0090
2911.00,0.0090
2910.00,0.0091
2909.00,0.0090
2908.00,0.0090
2907.00,0.0089
2906.00,0.0089
2905.00,0.0089
2904.00,0.0088
2903.00,0.0088
2902.00,0.0088
2901.00,0.0088
2900.00,0.0088
2899.00,0.0088
2898.00,0.0087
2897.00,0.0086
2896.00,0.0086
2895.00,0.0086
2894.00,0.0085
2893.00,0.0085
2892.00,0.0085
2891.00,0.0085
2890.00,0.0085
2889.00,0.0085
2888.00,0.0085
2887.00,0.0085
2886.00,0.0085
2885.00,0.0084
2884.00,0.0084
2883.00,0.0084
2882.00,0.0085
2881.00,0.0085
2880.00,0.0086
2879.00,0.0087
2878.00,0.0088
2877.00,0.0088
2876.00,0.0088
2875.00,0.0088
2874.00,0.0087
2873.00,0.0087
2872.00,0.0087
2871.00,0.0087
2870.00,0.0087
2869.00,0.0087
2868.00,0.0087
2867.00,0.0087
2866.00,0.0087
2865.00,0.0088
2864.00,0.0088
2863.00,0.0088
2862.00,0.0089
2861.00,0.0089
2860.00,0.0090
2859.00,0.0090
2858.00,0.0091
2857.00,0.0091
2856.00,0.0091
2855.00,0.0090
2854.00,0.0090
2853.00,0.0089
2852.00,0.0089
2851.00,0.0090
2850.00,0.0091
2849.00,0.0091
2848.00,0.0091
2847.00,0.0090
2846.00,0.0090
2845.00,0.0090
2844.00,0.0090
2843.00,0.0090
2842.00,0.0090
2841.00,0.0089
2840.00,0.0089
2839.00,0.0088
2838.00,0.0088
2837.00,0.0088
2836.00,0.0089
2835.00,0.0090
2834.00,0.0090
2833.00,0.0090
2832.00,0.0089
2831.00,0.0089
2830.00,0.0088
2829.00,0.0089
2828.00,0.0089
2827.00,0.0089
2826.00,0.0088
2825.00,0.0088
2824.00,0.0088
2823.00,0.0088
2822.00,0.0088
2821.00,0.0087
2820.00,0.0087
2819.00,0.0087
2818.00,0.0086
2817.00,0.0086
2816.00,0.0086
2815.00,0.0086
2814.00,0.0086
2813.00,0.0085
2812.00,0.0085
2811.00,0.0085
2810.00,0.0085
2809.00,0.0085
2808.00,0.0085
2807.00,0.0085
2806.00,0.0085
2805.00,0.0085
2804.00,0.0085
2803.00,0.0085
2802.00,0.0084
2801.00,0.0084
2800.00,0.0085
2799.00,0.0085
2798.00,0.0085
2797.00,0.0085
2796.00,0.0085
2795.00,0.0084
2794.00,0.0084
2793.00,0.0084
2792.00,0.0084
2791.00,0.0084
2790.00,0.0085
2789.00,0.0085
2788.00,0.0085
2787.00,0.0084
2786.00,0.0084
2785.00,0.0083
2784.00,0.0083
2783.00,0.0082
2782.00,0.0082
2781.00,0.0081
2780.00,0.0080
2779.00,0.0080
2778.00,0.0081
2777.00,0.0081
2776.00,0.0082
2775.00,0.0081
2774.00,0.0081
2773.00,0.0081
2772.00,0.0081
2771.00,0.0080
2770.00,0.0079
2769.00,0.0079
2768.00,0.0079
2767.00,0.0079
2766.00,0.0079
2765.00,0.0079
2764.00,0.0079
2763.00,0.0079
2762.00,0.0079
2761.00,0.0079
2760.00,0.0079
2759.00,0.0079
2758.00,0.0079
2757.00,0.0079
2756.00,0.0079
2755.00,0.0079
2754.00,0.0079
2753.00,0.0079
2752.00,0.0079
2751.00,0.0079
2750.00,0.0079
2749.00,0.0079
2748.00,0.0079
2747.00,0.0079
2746.00,0.0078
2745.00,0.0078
2744.00,0.0078
2743.00,0.0078
2742.00,0.0078
2741.00,0.0078
2740.00,0.0078
2739.00,0.0077
2738.00,0.0076
2737.00,0.0076
2736.00,0.0076
2735.00,0.0076
2734.00,0.0076
2733.00,0.0077
2732.00,0.0077
2731.00,0.0077
2730.00,0.0076
2729.00,0.0076
2728.00,0.0076
2727.00,0.0076
2726.00,0.0076
2725.00,0.0076
2724.00,0.0076
2723.00,0.0076
2722.00,0.0075
2721.00,0.0075
2720.00,0.0075
2719.00,0.0075
2718.00,0.0076
2717.00,0.0076
2716.00,0.0076
2715.00,0.0075
2714.00,0.0075
2713.00,0.0075
2712.00,0.0075
2711.00,0.0075
2710.00,0.0075
2709.00,0.0075
2708.00,0.0074
2707.00,0.0074
2706.00,0.0074
2705.00,0.0073
2704.00,0.0073
2703.00,0.0073
2702.00,0.0072
2701.00,0.0072
2700.00,0.0072
2699.00,0.0072
2698.00,0.0072
2697.00,0.0072
2696.00,0.0072
2695.00,0.0072
2694.00,0.0073
2693.00,0.0073
2692.00,0.0073
2691.00,0.0073
2690.00,0.0073
2689.00,0.0073
2688.00,0.0072
2687.00,0.0072
2686.00,0.0072
2685.00,0.0073
2684.00,0.0072
2683.00,0.0072
2682.00,0.0072
2681.00,0.0072
2680.00,0.0071
2679.00,0.0071
2678.00,0.0070
2677.00,0.0070
2676.00,0.0070
2675.00,0.0070
2674.00,0.0070
2673.00,0.0070
2672.00,0.0070
2671.00,0.0069
2670.00,0.0069
2669.00,0.0069
2668.00,0.0069
2667.00,0.0069
2666.00,0.0069
2665.00,0.0070
2664.00,0.0070
2663.00,0.0071
2662.00,0.0071
2661.00,0.0071
2660.00,0.0071
2659.00,0.0071
2658.00,0.0071
2657.00,0.0071
2656.00,0.0071
2655.00,0.0071
2654.00,0.0071
2653.00,0.0071
2652.00,0.0071
2651.00,0.0071
2650.00,0.0071
2649.00,0.0071
2648.00,0.0070
2647.00,0.0070
2646.00,0.0070
2645.00,0.0070
2644.00,0.0071
2643.00,0.0071
2642.00,0.0071
2641.00,0.0071
2640.00,0.0071
2639.00,0.0071
2638.00,0.0071
2637.00,0.0070
2636.00,0.0070
2635.00,0.0070
2634.00,0.0070
2633.00,0.0071
2632.00,0.0071
2631.00,0.0071
2630.00,0.0070
2629.00,0.0069
2628.00,0.0069
2627.00,0.0069
2626.00,0.0069
2625.00,0.0070
2624.00,0.0071
2623.00,0.0071
2622.00,0.0071
2621.00,0.0071
2620.00,0.0071
2619.00,0.0071
2618.00,0.0071
2617.00,0.0071
2616.00,0.0071
2615.00,0.0070
2614.00,0.0069
2613.00,0.0069
2612.00,0.0070
2611.00,0.0071
2610.00,0.0071
2609.00,0.0070
2608.00,0.0069
2607.00,0.0069
2606.00,0.0070
2605.00,0.0070
2604.00,0.0070
2603.00,0.0071
2602.00,0.0071
2601.00,0.0071
2600.00,0.0070
2599.00,0.0070
2598.00,0.0069
2597.00,0.0069
2596.00,0.0068
2595.00,0.0067
2594.00,0.0068
2593.00,0.0068
2592.00,0.0069
2591.00,0.0069
2590.00,0.0069
2589.00,0.0070
2588.00,0.0070
2587.00,0.0069
2586.00,0.0069
2585.00,0.0068
2584.00,0.0067
2583.00,0.0068
2582.00,0.0068
2581.00,0.0069
2580.00,0.0069
2579.00,0.0070
2578.00,0.0070
2577.00,0.0069
2576.00,0.0068
2575.00,0.0067
2574.00,0.0068
2573.00,0.0068
2572.00,0.0069
2571.00,0.0068
2570.00,0.0068
2569.00,0.0067
2568.00,0.0067
2567.00,0.0069
2566.00,0.0070
2565.00,0.0070
2564.00,0.0070
2563.00,0.0070
2562.00,0.0070
2561.00,0.0070
2560.00,0.0070
2559.00,0.0070
2558.00,0.0070
2557.00,0.0070
2556.00,0.0070
2555.00,0.0070
2554.00,0.0069
2553.00,0.0069
2552.00,0.0068
2551.00,0.0067
2550.00,0.0066
2549.00,0.0065
2548.00,0.0065
2547.00,0.0064
2546.00,0.0065
2545.00,0.0065
2544.00,0.0066
2543.00,0.0066
2542.00,0.0065
2541.00,0.0064
2540.00,0.0063
2539.00,0.0062
2538.00,0.0062
2537.00,0.0062
2536.00,0.0062
2535.00,0.0063
2534.00,0.0064
2533.00,0.0064
2532.00,0.0065
2531.00,0.0065
2530.00,0.0064
2529.00,0.0064
2528.00,0.0064
2527.00,0.0064
2526.00,0.0063
2525.00,0.0063
2524.00,0.0062
2523.00,0.0063
2522.00,0.0063
2521.00,0.0064
2520.00,0.0064
2519.00,0.0064
2518.00,0.0065
2517.00,0.0066
2516.00,0.0066
2515.00,0.0066
2514.00,0.0065
2513.00,0.0065
2512.00,0.0064
2511.00,0.0064
2510.00,0.0065
2509.00,0.0066
2508.00,0.0066
2507.00,0.0066
2506.00,0.0066
2505.00,0.0065
2504.00,0.0065
2503.00,0.0065
2502.00,0.0065
2501.00,0.0066
2500.00,0.0066
2499.00,0.0066
2498.00,0.0066
2497.00,0.0066
2496.00,0.0066
2495.00,0.0066
2494.00,0.0067
2493.00,0.0067
2492.00,0.0066
2491.00,0.0066
2490.00,0.0066
2489.00,0.0066
2488.00,0.0066
2487.00,0.0065
2486.00,0.0065
2485.00,0.0064
2484.00,0.0063
2483.00,0.0063
2482.00,0.0064
2481.00,0.0065
2480.00,0.0066
2479.00,0.0066
2478.00,0.0065
2477.00,0.0065
2476.00,0.0064
2475.00,0.0064
2474.00,0.0064
2473.00,0.0064
2472.00,0.0065
2471.00,0.0065
2470.00,0.0065
2469.00,0.0064
2468.00,0.0064
2467.00,0.0063
2466.00,0.0062
2465.00,0.0062
2464.00,0.0062
2463.00,0.0062
2462.00,0.0063
2461.00,0.0063
2460.00,0.0063
2459.00,0.0064
2458.00,0.0064
2457.00,0.0064
2456.00,0.0064
2455.00,0.0064
2454.00,0.0065
2453.00,0.0065
2452.00,0.0066
2451.00,0.0066
2450.00,0.0065
2449.00,0.0065
2448.00,0.0064
2447.00,0.0064
2446.00,0.0063
2445.00,0.0063
2444.00,0.0062
2443.00,0.0061
2442.00,0.0061
2441.00,0.0062
2440.00,0.0062
2439.00,0.0063
2438.00,0.0063
2437.00,0.0063
2436.00,0.0062
2435.00,0.0062
2434.00,0.0061
2433.00,0.0061
2432.00,0.0061
2431.00,0.0061
2430.00,0.0061
2429.00,0.0062
2428.00,0.0062
2427.00,0.0062
2426.00,0.0061
2425.00,0.0061
2424.00,0.0062
2423.00,0.0062
2422.00,0.0062
2421.00,0.0062
2420.00,0.0061
2419.00,0.0061
2418.00,0.0061
2417.00,0.0060
2416.00,0.0060
2415.00,0.0060
2414.00,0.0060
2413.00,0.0061
2412.00,0.0061
2411.00,0.0061
2410.00,0.0061
2409.00,0.0061
2408.00,0.0060
2407.00,0.0060
2406.00,0.0060
2405.00,0.0060
2404.00,0.0060
2403.00,0.0060
2402.00,0.0059
2401.00,0.0059
2400.00,0.0059
2399.00,0.0059
2398.00,0.0059
2397.00,0.0059
2396.00,0.0058
2395.00,0.0057
2394.00,0.0057
2393.00,0.0057
2392.00,0.0057
2391.00,0.0057
2390.00,0.0057
2389.00,0.0057
2388.00,0.0057
2387.00,0.0057
2386.00,0.0056
2385.00,0.0055
2384.00,0.0054
2383.00,0.0053
2382.00,0.0053
2381.00,0.0053
2380.00,0.0054
2379.00,0.0055
2378.00,0.0055
2377.00,0.0055
2376.00,0.0055
2375.00,0.0055
2374.00,0.0055
2373.00,0.0054
2372.00,0.0053
2371.00,0.0051
2370.00,0.0049
2369.00,0.0047
2368.00,0.0045
2367.00,0.0045
2366.00,0.0048
2365.00,0.0050
2364.00,0.0052
2363.00,0.0051
2362.00,0.0050
2361.00,0.0050
2360.00,0.0050
2359.00,0.0050
2358.00,0.0050
2357.00,0.0050
2356.00,0.0049
2355.00,0.0048
2354.00,0.0047
2353.00,0.0046
2352.00,0.0047
2351.00,0.0048
2350.00,0.0049
2349.00,0.0050
2348.00,0.0050
2347.00,0.0049
2346.00,0.0047
2345.00,0.0048
2344.00,0.0050
2343.00,0.0052
2342.00,0.0054
2341.00,0.0054
2340.00,0.0053
2339.00,0.0052
2338.00,0.0050
2337.00,0.0049
2336.00,0.0049
2335.00,0.0049
2334.00,0.0050
2333.00,0.0050
2332.00,0.0050
2331.00,0.0049
2330.00,0.0049
2329.00,0.0049
2328.00,0.0049
2327.00,0.0051
2326.00,0.0051
2325.00,0.0051
2324.00,0.0051
2323.00,0.0050
2322.00,0.0050
2321.00,0.0051
2320.00,0.0051
2319.00,0.0051
2318.00,0.0051
2317.00,0.0051
2316.00,0.0051
2315.00,0.0050
2314.00,0.0050
2313.00,0.0050
2312.00,0.0050
2311.00,0.0051
2310.00,0.0052
2309.00,0.0053
2308.00,0.0054
2307.00,0.0053
2306.00,0.0053
2305.00,0.0053
2304.00,0.0053
2303.00,0.0052
2302.00,0.0052
2301.00,0.0052
2300.00,0.0052
2299.00,0.0052
2298.00,0.0052
2297.00,0.0052
2296.00,0.0052
2295.00,0.0053
2294.00,0.0054
2293.00,0.0056
2292.00,0.0058
2291.00,0.0059
2290.00,0.0059
2289.00,0.0058
2288.00,0.0058
2287.00,0.0059
2286.00,0.0060
2285.00,0.0062
2284.00,0.0063
2283.00,0.0063
2282.00,0.0062
2281.00,0.0061
2280.00,0.0060
2279.00,0.0061
2278.00,0.0061
2277.00,0.0061
2276.00,0.0060
2275.00,0.0059
2274.00,0.0057
2273.00,0.0057
2272.00,0.0057
2271.00,0.0057
2270.00,0.0058
2269.00,0.0059
2268.00,0.0058
2267.00,0.0058
2266.00,0.0058
2265.00,0.0058
2264.00,0.0059
2263.00,0.0060
2262.00,0.0061
2261.00,0.0061
2260.00,0.0061
2259.00,0.0060
2258.00,0.0058
2257.00,0.0055
2256.00,0.0053
2255.00,0.0053
2254.00,0.0054
2253.00,0.0055
2252.00,0.0056
2251.00,0.0057
2250.00,0.0057
2249.00,0.0057
2248.00,0.0057
2247.00,0.0057
2246.00,0.0058
2245.00,0.0059
2244.00,0.0059
2243.00,0.0060
2242.00,0.0059
2241.00,0.0059
2240.00,0.0058
2239.00,0.0058
2238.00,0.0057
2237.00,0.0057
2236.00,0.0057
2235.00,0.0057
2234.00,0.0057
2233.00,0.0057
2232.00,0.0056
2231.00,0.0056
2230.00,0.0055
2229.00,0.0054
2228.00,0.0055
2227.00,0.0055
2226.00,0.0056
2225.00,0.0056
2224.00,0.0055
2223.00,0.0054
2222.00,0.0053
2221.00,0.0053
2220.00,0.0053
2219.00,0.0054
2218.00,0.0055
2217.00,0.0056
2216.00,0.0058
2215.00,0.0059
2214.00,0.0060
2213.00,0.0061
2212.00,0.0059
2211.00,0.0058
2210.00,0.0057
2209.00,0.0057
2208.00,0.0057
2207.00,0.0058
2206.00,0.0058
2205.00,0.0058
2204.00,0.0057
2203.00,0.0057
2202.00,0.0056
2201.00,0.0056
2200.00,0.0056
2199.00,0.0055
2198.00,0.0055
2197.00,0.0055
2196.00,0.0054
2195.00,0.0053
2194.00,0.0052
2193.00,0.0051
2192.00,0.0051
2191.00,0.0049
2190.00,0.0048
2189.00,0.0047
2188.00,0.0047
2187.00,0.0050
2186.00,0.0055
2185.00,0.0057
2184.00,0.0057
2183.00,0.0054
2182.00,0.0051
2181.00,0.0050
2180.00,0.0051
2179.00,0.0054
2178.00,0.0057
2177.00,0.0059
2176.00,0.0058
2175.00,0.0057
2174.00,0.0056
2173.00,0.0055
2172.00,0.0056
2171.00,0.0057
2170.00,0.0058
2169.00,0.0059
2168.00,0.0059
2167.00,0.0060
2166.00,0.0061
2165.00,0.0064
2164.00,0.0067
2163.00,0.0068
2162.00,0.0068
2161.00,0.0064
2160.00,0.0057
2159.00,0.0048
2158.00,0.0041
2157.00,0.0038
2156.00,0.0038
2155.00,0.0040
2154.00,0.0044
2153.00,0.0049
2152.00,0.0050
2151.00,0.0049
2150.00,0.0046
2149.00,0.0044
2148.00,0.0045
2147.00,0.0047
2146.00,0.0049
2145.00,0.0051
2144.00,0.0052
2143.00,0.0053
2142.00,0.0053
2141.00,0.0053
2140.00,0.0052
2139.00,0.0051
2138.00,0.0048
2137.00,0.0046
2136.00,0.0044
2135.00,0.0043
2134.00,0.0043
2133.00,0.0044
2132.00,0.0044
2131.00,0.0045
2130.00,0.0045
2129.00,0.0047
2128.00,0.0048
2127.00,0.0049
2126.00,0.0049
2125.00,0.0048
2124.00,0.0048
2123.00,0.0048
2122.00,0.0048
2121.00,0.0048
2120.00,0.0048
2119.00,0.0048
2118.00,0.0048
2117.00,0.0047
2116.00,0.0047
2115.00,0.0046
2114.00,0.0045
2113.00,0.0045
2112.00,0.0046
2111.00,0.0047
2110.00,0.0048
2109.00,0.0049
2108.00,0.0050
2107.00,0.0051
2106.00,0.0051
2105.00,0.0050
2104.00,0.0050
2103.00,0.0049
2102.00,0.0049
2101.00,0.0048
2100.00,0.0046
2099.00,0.0044
2098.00,0.0042
2097.00,0.0042
2096.00,0.0042
2095.00,0.0044
2094.00,0.0045
2093.00,0.0046
2092.00,0.0046
2091.00,0.0045
2090.00,0.0044
2089.00,0.0043
2088.00,0.0043
2087.00,0.0044
2086.00,0.0045
2085.00,0.0047
2084.00,0.0049
2083.00,0.0050
2082.00,0.0049
2081.00,0.0049
2080.00,0.0049
2079.00,0.0049
2078.00,0.0049
2077.00,0.0049
2076.00,0.0049
2075.00,0.0050
2074.00,0.0050
2073.00,0.0051
2072.00,0.0051
2071.00,0.0052
2070.00,0.0051
2069.00,0.0049
2068.00,0.0045
2067.00,0.0043
2066.00,0.0042
2065.00,0.0043
2064.00,0.0045
2063.00,0.0046
2062.00,0.0048
2061.00,0.0048
2060.00,0.0047
2059.00,0.0046
2058.00,0.0046
2057.00,0.0046
2056.00,0.0047
2055.00,0.0047
2054.00,0.0047
2053.00,0.0049
2052.00,0.0051
2051.00,0.0051
2050.00,0.0050
2049.00,0.0048
2048.00,0.0047
2047.00,0.0047
2046.00,0.0048
2045.00,0.0050
2044.00,0.0053
2043.00,0.0054
2042.00,0.0054
2041.00,0.0052
2040.00,0.0049
2039.00,0.0047
2038.00,0.0047
2037.00,0.0049
2036.00,0.0050
2035.00,0.0050
2034.00,0.0048
2033.00,0.0048
2032.00,0.0051
2031.00,0.0054
2030.00,0.0055
2029.00,0.0053
2028.00,0.0051
2027.00,0.0049
2026.00,0.0047
2025.00,0.0044
2024.00,0.0041
2023.00,0.0038
2022.00,0.0038
2021.00,0.0038
2020.00,0.0037
2019.00,0.0036
2018.00,0.0034
2017.00,0.0033
2016.00,0.0034
2015.00,0.0037
2014.00,0.0040
2013.00,0.0042
2012.00,0.0041
2011.00,0.0040
2010.00,0.0040
2009.00,0.0040
2008.00,0.0041
2007.00,0.0041
2006.00,0.0041
2005.00,0.0041
2004.00,0.0041
2003.00,0.0043
2002.00,0.0046
2001.00,0.0049
2000.00,0.0049
1999.00,0.0046
1998.00,0.0044
1997.00,0.0044
1996.00,0.0047
1995.00,0.0051
1994.00,0.0053
1993.00,0.0053
1992.00,0.0051
1991.00,0.0047
1990.00,0.0045
1989.00,0.0043
1988.00,0.0042
1987.00,0.0042
1986.00,0.0042
1985.00,0.0044
1984.00,0.0045
1983.00,0.0046
1982.00,0.0046
1981.00,0.0044
1980.00,0.0040
1979.00,0.0035
1978.00,0.0030
1977.00,0.0027
1976.00,0.0029
1975.00,0.0034
1974.00,0.0040
1973.00,0.0042
1972.00,0.0041
1971.00,0.0038
1970.00,0.0037
1969.00,0.0038
1968.00,0.0039
1967.00,0.0040
1966.00,0.0038
1965.00,0.0036
1964.00,0.0035
1963.00,0.0035
1962.00,0.0035
1961.00,0.0035
1960.00,0.0036
1959.00,0.0038
1958.00,0.0039
1957.00,0.0039
1956.00,0.0037
1955.00,0.0036
1954.00,0.0036
1953.00,0.0037
1952.00,0.0037
1951.00,0.0036
1950.00,0.0035
1949.00,0.0034
1948.00,0.0034
1947.00,0.0035
1946.00,0.0035
1945.00,0.0034
1944.00,0.0033
1943.00,0.0031
1942.00,0.0030
1941.00,0.0030
1940.00,0.0029
1939.00,0.0028
1938.00,0.0027
1937.00,0.0027
1936.00,0.0028
1935.00,0.0029
1934.00,0.0028
1933.00,0.0028
1932.00,0.0029
1931.00,0.0030
1930.00,0.0032
1929.00,0.0034
1928.00,0.0035
1927.00,0.0036
1926.00,0.0036
1925.00,0.0036
1924.00,0.0036
1923.00,0.0035
1922.00,0.0034
1921.00,0.0034
1920.00,0.0034
1919.00,0.0032
1918.00,0.0030
1917.00,0.0029
1916.00,0.0028
1915.00,0.0029
1914.00,0.0031
1913.00,0.0032
1912.00,0.0032
1911.00,0.0032
1910.00,0.0031
1909.00,0.0030
1908.00,0.0029
1907.00,0.0028
1906.00,0.0028
1905.00,0.0029
1904.00,0.0029
1903.00,0.0029
1902.00,0.0029
1901.00,0.0029
1900.00,0.0028
1899.00,0.0029
1898.00,0.0030
1897.00,0.0030
1896.00,0.0028
1895.00,0.0027
1894.00,0.0026
1893.00,0.0027
1892.00,0.0028
1891.00,0.0029
1890.00,0.0029
1889.00,0.0028
1888.00,0.0027
1887.00,0.0026
1886.00,0.0025
1885.00,0.0026
1884.00,0.0026
1883.00,0.0027
1882.00,0.0027
1881.00,0.0027
1880.00,0.0027
1879.00,0.0027
1878.00,0.0026
1877.00,0.0026
1876.00,0.0026
1875.00,0.0027
1874.00,0.0028
1873.00,0.0030
1872.00,0.0031
1871.00,0.0031
1870.00,0.0030
1869.00,0.0029
1868.00,0.0027
1867.00,0.0025
1866.00,0.0025
1865.00,0.0025
1864.00,0.0025
1863.00,0.0024
1862.00,0.0023
1861.00,0.0023
1860.00,0.0022
1859.00,0.0022
1858.00,0.0023
1857.00,0.0024
1856.00,0.0025
1855.00,0.0026
1854.00,0.0025
1853.00,0.0024
1852.00,0.0024
1851.00,0.0024
1850.00,0.0025
1849.00,0.0025
1848.00,0.0025
1847.00,0.0025
1846.00,0.0026
1845.00,0.0025
1844.00,0.0023
1843.00,0.0021
1842.00,0.0021
1841.00,0.0022
1840.00,0.0022
1839.00,0.0022
1838.00,0.0022
1837.00,0.0022
1836.00,0.0022
1835.00,0.0022
1834.00,0.0022
1833.00,0.0023
1832.00,0.0024
1831.00,0.0024
1830.00,0.0023
1829.00,0.0021
1828.00,0.0020
1827.00,0.0021
1826.00,0.0021
1825.00,0.0021
1824.00,0.0020
1823.00,0.0020
1822.00,0.0020
1821.00,0.0020
1820.00,0.0020
1819.00,0.0019
1818.00,0.0019
1817.00,0.0018
1816.00,0.0018
1815.00,0.0018
1814.00,0.0019
1813.00,0.0019
1812.00,0.0019
1811.00,0.0019
1810.00,0.0018
1809.00,0.0019
1808.00,0.0019
1807.00,0.0019
1806.00,0.0020
1805.00,0.0020
1804.00,0.0021
1803.00,0.0022
1802.00,0.0021
1801.00,0.0021
1800.00,0.0020
1799.00,0.0019
1798.00,0.0020
1797.00,0.0021
1796.00,0.0022
1795.00,0.0022
1794.00,0.0023
1793.00,0.0022
1792.00,0.0022
1791.00,0.0020
1790.00,0.0020
1789.00,0.0021
1788.00,0.0022
1787.00,0.0023
1786.00,0.0024
1785.00,0.0024
1784.00,0.0024
1783.00,0.0025
1782.00,0.0025
1781.00,0.0025
1780.00,0.0024
1779.00,0.0025
1778.00,0.0026
1777.00,0.0028
1776.00,0.0030
1775.00,0.0031
1774.00,0.0032
1773.00,0.0030
1772.00,0.0028
1771.00,0.0026
1770.00,0.0027
1769.00,0.0029
1768.00,0.0030
1767.00,0.0030
1766.00,0.0031
1765.00,0.0033
1764.00,0.0034
1763.00,0.0034
1762.00,0.0033
1761.00,0.0032
1760.00,0.0032
1759.00,0.0034
1758.00,0.0034
1757.00,0.0034
1756.00,0.0034
1755.00,0.0036
1754.00,0.0038
1753.00,0.0040
1752.00,0.0040
1751.00,0.0039
1750.00,0.0038
1749.00,0.0038
1748.00,0.0038
1747.00,0.0039
1746.00,0.0040
1745.00,0.0041
1744.00,0.0042
1743.00,0.0043
1742.00,0.0043
1741.00,0.0044
1740.00,0.0045
1739.00,0.0045
1738.00,0.0046
1737.00,0.0049
1736.00,0.0051
1735.00,0.0053
1734.00,0.0052
1733.00,0.0050
1732.00,0.0050
1731.00,0.0051
1730.00,0.0052
1729.00,0.0052
1728.00,0.0054
1727.00,0.0056
1726.00,0.0057
1725.00,0.0059
1724.00,0.0060
1723.00,0.0062
1722.00,0.0063
1721.00,0.0064
1720.00,0.0065
1719.00,0.0065
1718.00,0.0065
1717.00,0.0065
1716.00,0.0066
1715.00,0.0067
1714.00,0.0068
1713.00,0.0070
1712.00,0.0071
1711.00,0.0072
1710.00,0.0072
1709.00,0.0073
1708.00,0.0074
1707.00,0.0074
1706.00,0.0074
1705.00,0.0074
1704.00,0.0076
1703.00,0.0078
1702.00,0.0080
1701.00,0.0081
1700.00,0.0080
1699.00,0.0079
1698.00,0.0081
1697.00,0.0082
1696.00,0.0082
1695.00,0.0080
1694.00,0.0081
1693.00,0.0083
1692.00,0.0084
1691.00,0.0085
1690.00,0.0085
1689.00,0.0086
1688.00,0.0087
1687.00,0.0088
1686.00,0.0088
1685.00,0.0087
1684.00,0.0086
1683.00,0.0085
1682.00,0.0086
1681.00,0.0088
1680.00,0.0089
1679.00,0.0090
1678.00,0.0092
1677.00,0.0095
1676.00,0.0097
1675.00,0.0098
1674.00,0.0097
1673.00,0.0097
1672.00,0.0098
1671.00,0.0098
1670.00,0.0098
1669.00,0.0098
1668.00,0.0099
1667.00,0.0100
1666.00,0.0101
1665.00,0.0103
1664.00,0.0103
1663.00,0.0104
1662.00,0.0105
1661.00,0.0106
1660.00,0.0108
1659.00,0.0111
1658.00,0.0112
1657.00,0.0112
1656.00,0.0111
1655.00,0.0109
1654.00,0.0109
1653.00,0.0110
1652.00,0.0110
1651.00,0.0113
1650.00,0.0115
1649.00,0.0116
1648.00,0.0117
1647.00,0.0119
1646.00,0.0120
1645.00,0.0122
1644.00,0.0123
1643.00,0.0124
1642.00,0.0125
1641.00,0.0125
1640.00,0.0125
1639.00,0.0125
1638.00,0.0125
1637.00,0.0126
1636.00,0.0128
1635.00,0.0130
1634.00,0.0130
1633.00,0.0130
1632.00,0.0130
1631.00,0.0130
1630.00,0.0130
1629.00,0.0131
1628.00,0.0131
1627.00,0.0132
1626.00,0.0133
1625.00,0.0135
1624.00,0.0136
1623.00,0.0137
1622.00,0.0138
1621.00,0.0138
1620.00,0.0138
1619.00,0.0139
1618.00,0.0139
1617.00,0.0139
1616.00,0.0140
1615.00,0.0140
1614.00,0.0141
1613.00,0.0141
1612.00,0.0140
1611.00,0.0141
1610.00,0.0141
1609.00,0.0141
1608.00,0.0141
1607.00,0.0142
1606.00,0.0143
1605.00,0.0144
1604.00,0.0144
1603.00,0.0144
1602.00,0.0143
1601.00,0.0141
1600.00,0.0141
1599.00,0.0141
1598.00,0.0142
1597.00,0.0142
1596.00,0.0143
1595.00,0.0144
1594.00,0.0145
1593.00,0.0145
1592.00,0.0145
1591.00,0.0144
1590.00,0.0144
1589.00,0.0144
1588.00,0.0145
1587.00,0.0146
1586.00,0.0146
1585.00,0.0146
1584.00,0.0146
1583.00,0.0146
1582.00,0.0146
1581.00,0.0145
1580.00,0.0145
1579.00,0.0145
1578.00,0.0146
1577.00,0.0148
1576.00,0.0148
1575.00,0.0147
1574.00,0.0146
1573.00,0.0145
1572.00,0.0144
1571.00,0.0144
1570.00,0.0144
1569.00,0.0144
1568.00,0.0145
1567.00,0.0145
1566.00,0.0144
1565.00,0.0143
1564.00,0.0142
1563.00,0.0142
1562.00,0.0141
1561.00,0.0138
1560.00,0.0139
1559.00,0.0144
1558.00,0.0142
1557.00,0.0141
1556.00,0.0140
1555.00,0.0140
1554.00,0.0140
1553.00,0.0140
1552.00,0.0140
1551.00,0.0139
1550.00,0.0138
1549.00,0.0136
1548.00,0.0135
1547.00,0.0134
1546.00,0.0133
1545.00,0.0133
1544.00,0.0132
1543.00,0.0131
1542.00,0.0129
1541.00,0.0128
1540.00,0.0127
1539.00,0.0125
1538.00,0.0124
1537.00,0.0125
1536.00,0.0125
1535.00,0.0124
1534.00,0.0124
1533.00,0.0123
1532.00,0.0122
1531.00,0.0122
1530.00,0.0121
1529.00,0.0121
1528.00,0.0121
1527.00,0.0120
1526.00,0.0118
1525.00,0.0117
1524.00,0.0115
1523.00,0.0115
1522.00,0.0115
1521.00,0.0115
1520.00,0.0115
1519.00,0.0115
1518.00,0.0115
1517.00,0.0114
1516.00,0.0113
1515.00,0.0112
1514.00,0.0112
1513.00,0.0112
1512.00,0.0111
1511.00,0.0110
1510.00,0.0109
1509.00,0.0108
1508.00,0.0109
1507.00,0.0109
1506.00,0.0107
1505.00,0.0106
1504.00,0.0107
1503.00,0.0107
1502.00,0.0106
1501.00,0.0105
1500.00,0.0105
1499.00,0.0105
1498.00,0.0106
1497.00,0.0107
1496.00,0.0107
1495.00,0.0106
1494.00,0.0104
1493.00,0.0103
1492.00,0.0103
1491.00,0.0103
1490.00,0.0103
1489.00,0.0103
1488.00,0.0102
1487.00,0.0102
1486.00,0.0101
1485.00,0.0101
1484.00,0.0100
1483.00,0.0100
1482.00,0.0100
1481.00,0.0100
1480.00,0.0100
1479.00,0.0099
1478.00,0.0099
1477.00,0.0099
1476.00,0.0099
1475.00,0.0099
1474.00,0.0100
1473.00,0.0101
1472.00,0.0102
1471.00,0.0102
1470.00,0.0103
1469.00,0.0104
1468.00,0.0104
1467.00,0.0104
1466.00,0.0104
1465.00,0.0103
1464.00,0.0102
1463.00,0.0101
1462.00,0.0100
1461.00,0.0100
1460.00,0.0100
1459.00,0.0101
1458.00,0.0103
1457.00,0.0104
1456.00,0.0103
1455.00,0.0103
1454.00,0.0103
1453.00,0.0103
1452.00,0.0104
1451.00,0.0105
1450.00,0.0105
1449.00,0.0106
1448.00,0.0107
1447.00,0.0107
1446.00,0.0107
1445.00,0.0107
1444.00,0.0107
1443.00,0.0107
1442.00,0.0106
1441.00,0.0106
1440.00,0.0107
1439.00,0.0108
1438.00,0.0110
1437.00,0.0111
1436.00,0.0112
1435.00,0.0111
1434.00,0.0110
1433.00,0.0109
1432.00,0.0109
1431.00,0.0109
1430.00,0.0109
1429.00,0.0109
1428.00,0.0108
1427.00,0.0109
1426.00,0.0109
1425.00,0.0109
1424.00,0.0109
1423.00,0.0110
1422.00,0.0110
1421.00,0.0110
1420.00,0.0110
1419.00,0.0111
1418.00,0.0112
1417.00,0.0113
1416.00,0.0113
1415.00,0.0113
1414.00,0.0112
1413.00,0.0110
1412.00,0.0110
1411.00,0.0109
1410.00,0.0109
1409.00,0.0109
1408.00,0.0109
1407.00,0.0109
1406.00,0.0108
1405.00,0.0107
1404.00,0.0107
1403.00,0.0106
1402.00,0.0105
1401.00,0.0104
1400.00,0.0103
1399.00,0.0103
1398.00,0.0102
1397.00,0.0102
1396.00,0.0102
1395.00,0.0102
1394.00,0.0101
1393.00,0.0101
1392.00,0.0101
1391.00,0.0101
1390.00,0.0101
1389.00,0.0101
1388.00,0.0101
1387.00,0.0102
1386.00,0.0101
1385.00,0.0101
1384.00,0.0101
1383.00,0.0101
1382.00,0.0102
1381.00,0.0102
1380.00,0.0103
1379.00,0.0104
1378.00,0.0104
1377.00,0.0105
1376.00,0.0106
1375.00,0.0107
1374.00,0.0108
1373.00,0.0108
1372.00,0.0109
1371.00,0.0109
1370.00,0.0110
1369.00,0.0110
1368.00,0.0110
1367.00,0.0110
1366.00,0.0110
1365.00,0.0109
1364.00,0.0109
1363.00,0.0110
1362.00,0.0110
1361.00,0.0111
1360.00,0.0111
1359.00,0.0111
1358.00,0.0112
1357.00,0.0112
1356.00,0.0113
1355.00,0.0113
1354.00,0.0113
1353.00,0.0113
1352.00,0.0112
1351.00,0.0111
1350.00,0.0110
1349.00,0.0110
1348.00,0.0110
1347.00,0.0110
1346.00,0.0110
1345.00,0.0109
1344.00,0.0108
1343.00,0.0108
1342.00,0.0108
1341.00,0.0109
1340.00,0.0110
1339.00,0.0111
1338.00,0.0110
1337.00,0.0110
1336.00,0.0110
1335.00,0.0109
1334.00,0.0109
1333.00,0.0109
1332.00,0.0108
1331.00,0.0108
1330.00,0.0108
1329.00,0.0107
1328.00,0.0107
1327.00,0.0107
1326.00,0.0106
1325.00,0.0107
1324.00,0.0107
1323.00,0.0108
1322.00,0.0109
1321.00,0.0110
1320.00,0.0110
1319.00,0.0110
1318.00,0.0109
1317.00,0.0107
1316.00,0.0106
1315.00,0.0106
1314.00,0.0106
1313.00,0.0107
1312.00,0.0108
1311.00,0.0109
1310.00,0.0109
1309.00,0.0109
1308.00,0.0108
1307.00,0.0108
1306.00,0.0107
1305.00,0.0107
1304.00,0.0107
1303.00,0.0108
1302.00,0.0108
1301.00,0.0108
1300.00,0.0108
1299.00,0.0107
1298.00,0.0106
1297.00,0.0106
1296.00,0.0106
1295.00,0.0106
1294.00,0.0106
1293.00,0.0106
1292.00,0.0107
1291.00,0.0107
1290.00,0.0108
1289.00,0.0108
1288.00,0.0108
1287.00,0.0107
1286.00,0.0106
1285.00,0.0106
1284.00,0.0106
1283.00,0.0107
1282.00,0.0107
1281.00,0.0106
1280.00,0.0105
1279.00,0.0104
1278.00,0.0103
1277.00,0.0103
1276.00,0.0103
1275.00,0.0103
1274.00,0.0103
1273.00,0.0102
1272.00,0.0101
1271.00,0.0100
1270.00,0.0100
1269.00,0.0100
1268.00,0.0100
1267.00,0.0100
1266.00,0.0101
1265.00,0.0101
1264.00,0.0100
1263.00,0.0099
1262.00,0.0098
1261.00,0.0098
1260.00,0.0099
1259.00,0.0100
1258.00,0.0100
1257.00,0.0100
1256.00,0.0100
1255.00,0.0099
1254.00,0.0099
1253.00,0.0100
1252.00,0.0101
1251.00,0.0101
1250.00,0.0101
1249.00,0.0101
1248.00,0.0101
1247.00,0.0103
1246.00,0.0104
1245.00,0.0105
1244.00,0.0106
1243.00,0.0107
1242.00,0.0107
1241.00,0.0107
1240.00,0.0107
1239.00,0.0108
1238.00,0.0110
1237.00,0.0112
1236.00,0.0113
1235.00,0.0115
1234.00,0.0116
1233.00,0.0117
1232.00,0.0118
1231.00,0.0118
1230.00,0.0119
1229.00,0.0121
1228.00,0.0122
1227.00,0.0124
1226.00,0.0125
1225.00,0.0126
1224.00,0.0126
1223.00,0.0127
1222.00,0.0128
1221.00,0.0130
1220.00,0.0132
1219.00,0.0134
1218.00,0.0135
1217.00,0.0136
1216.00,0.0137
1215.00,0.0137
1214.00,0.0138
1213.00,0.0139
1212.00,0.0140
1211.00,0.0142
1210.00,0.0144
1209.00,0.0145
1208.00,0.0146
1207.00,0.0147
1206.00,0.0147
1205.00,0.0147
1204.00,0.0148
1203.00,0.0148
1202.00,0.0149
1201.00,0.0150
1200.00,0.0151
1199.00,0.0152
1198.00,0.0153
1197.00,0.0153
1196.00,0.0153
1195.00,0.0154
1194.00,0.0154
1193.00,0.0155
1192.00,0.0156
1191.00,0.0156
1190.00,0.0156
1189.00,0.0156
1188.00,0.0156
1187.00,0.0156
1186.00,0.0156
1185.00,0.0156
1184.00,0.0157
1183.00,0.0157
1182.00,0.0156
1181.00,0.0155
1180.00,0.0154
1179.00,0.0154
1178.00,0.0154
1177.00,0.0156
1176.00,0.0157
1175.00,0.0159
1174.00,0.0160
1173.00,0.0160
1172.00,0.0159
1171.00,0.0158
1170.00,0.0157
1169.00,0.0157
1168.00,0.0158
1167.00,0.0159
1166.00,0.0159
1165.00,0.0160
1164.00,0.0161
1163.00,0.0161
1162.00,0.0162
1161.00,0.0162
1160.00,0.0163
1159.00,0.0163
1158.00,0.0162
1157.00,0.0162
1156.00,0.0163
1155.00,0.0164
1154.00,0.0165
1153.00,0.0165
1152.00,0.0164
1151.00,0.0163
1150.00,0.0163
1149.00,0.0163
1148.00,0.0163
1147.00,0.0164
1146.00,0.0165
1145.00,0.0166
1144.00,0.0167
1143.00,0.0168
1142.00,0.0169
1141.00,0.0169
1140.00,0.0169
1139.00,0.0170
1138.00,0.0170
1137.00,0.0171
1136.00,0.0172
1135.00,0.0174
1134.00,0.0176
1133.00,0.0177
1132.00,0.0178
1131.00,0.0179
1130.00,0.0180
1129.00,0.0182
1128.00,0.0184
1127.00,0.0184
1126.00,0.0183
1125.00,0.0182
1124.00,0.0182
1123.00,0.0185
1122.00,0.0189
1121.00,0.0193
1120.00,0.0195
1119.00,0.0196
1118.00,0.0195
1117.00,0.0195
1116.00,0.0197
1115.00,0.0199
1114.00,0.0200
1113.00,0.0201
1112.00,0.0201
1111.00,0.0202
1110.00,0.0203
1109.00,0.0204
1108.00,0.0205
1107.00,0.0205
1106.00,0.0204
1105.00,0.0204
1104.00,0.0204
1103.00,0.0206
1102.00,0.0208
1101.00,0.0211
1100.00,0.0212
1099.00,0.0212
1098.00,0.0213
1097.00,0.0213
1096.00,0.0213
1095.00,0.0213
1094.00,0.0213
1093.00,0.0213
1092.00,0.0214
1091.00,0.0215
1090.00,0.0214
1089.00,0.0213
1088.00,0.0213
1087.00,0.0214
1086.00,0.0216
1085.00,0.0219
1084.00,0.0221
1083.00,0.0223
1082.00,0.0224
1081.00,0.0225
1080.00,0.0226
1079.00,0.0228
1078.00,0.0232
1077.00,0.0235
1076.00,0.0236
1075.00,0.0235
1074.00,0.0233
1073.00,0.0232
1072.00,0.0233
1071.00,0.0234
1070.00,0.0234
1069.00,0.0233
1068.00,0.0233
1067.00,0.0235
1066.00,0.0238
1065.00,0.0242
1064.00,0.0245
1063.00,0.0248
1062.00,0.0248
1061.00,0.0247
1060.00,0.0246
1059.00,0.0245
1058.00,0.0247
1057.00,0.0250
1056.00,0.0252
1055.00,0.0255
1054.00,0.0257
1053.00,0.0260
1052.00,0.0261
1051.00,0.0262
1050.00,0.0263
1049.00,0.0265
1048.00,0.0267
1047.00,0.0268
1046.00,0.0268
1045.00,0.0268
1044.00,0.0270
1043.00,0.0271
1042.00,0.0270
1041.00,0.0269
1040.00,0.0268
1039.00,0.0269
1038.00,0.0270
1037.00,0.0272
1036.00,0.0273
1035.00,0.0273
1034.00,0.0273
1033.00,0.0273
1032.00,0.0273
1031.00,0.0273
1030.00,0.0272
1029.00,0.0271
1028.00,0.0270
1027.00,0.0270
1026.00,0.0271
1025.00,0.0272
1024.00,0.0273
1023.00,0.0273
1022.00,0.0272
1021.00,0.0271
1020.00,0.0270
1019.00,0.0269
1018.00,0.0268
1017.00,0.0268
1016.00,0.0268
1015.00,0.0268
1014.00,0.0269
1013.00,0.0268
1012.00,0.0268
1011.00,0.0268
1010.00,0.0268
1009.00,0.0267
1008.00,0.0266
1007.00,0.0264
1006.00,0.0262
1005.00,0.0262
1004.00,0.0262
1003.00,0.0263
1002.00,0.0263
1001.00,0.0262
1000.00,0.0259
999.00,0.0256
998.00,0.0253
997.00,0.0252
996.00,0.0252
995.00,0.0252
994.00,0.0251
993.00,0.0249
992.00,0.0247
991.00,0.0245
990.00,0.0243
989.00,0.0241
988.00,0.0241
987.00,0.0240
986.00,0.0240
985.00,0.0239
984.00,0.0236
983.00,0.0233
982.00,0.0230
981.00,0.0228
980.00,0.0227
979.00,0.0225
978.00,0.0223
977.00,0.0219
976.00,0.0216
975.00,0.0213
974.00,0.0212
973.00,0.0211
972.00,0.0210
971.00,0.0207
970.00,0.0204
969.00,0.0201
968.00,0.0198
967.00,0.0196
966.00,0.0194
965.00,0.0192
964.00,0.0191
963.00,0.0191
962.00,0.0191
961.00,0.0191
960.00,0.0190
959.00,0.0188
958.00,0.0185
957.00,0.0183
956.00,0.0182
955.00,0.0181
954.00,0.0180
953.00,0.0179
952.00,0.0179
951.00,0.0180
950.00,0.0182
949.00,0.0183
948.00,0.0183
947.00,0.0181
946.00,0.0179
945.00,0.0177
944.00,0.0176
943.00,0.0176
942.00,0.0175
941.00,0.0175
940.00,0.0176
939.00,0.0177
938.00,0.0178
937.00,0.0178
936.00,0.0177
935.00,0.0175
934.00,0.0175
933.00,0.0176
932.00,0.0179
931.00,0.0181
930.00,0.0182
929.00,0.0183
928.00,0.0184
927.00,0.0185
926.00,0.0186
925.00,0.0186
924.00,0.0185
923.00,0.0184
922.00,0.0183
921.00,0.0183
920.00,0.0184
919.00,0.0183
918.00,0.0183
917.00,0.0183
916.00,0.0183
915.00,0.0184
914.00,0.0184
913.00,0.0184
912.00,0.0184
911.00,0.0184
910.00,0.0183
909.00,0.0180
908.00,0.0178
907.00,0.0176
906.00,0.0176
905.00,0.0178
904.00,0.0181
903.00,0.0184
902.00,0.0185
901.00,0.0184
900.00,0.0182
899.00,0.0180
898.00,0.0180
897.00,0.0182
896.00,0.0183
895.00,0.0182
894.00,0.0181
893.00,0.0179
892.00,0.0177
891.00,0.0175
890.00,0.0175
889.00,0.0177
888.00,0.0177
887.00,0.0176
886.00,0.0173
885.00,0.0170
884.00,0.0171
883.00,0.0174
882.00,0.0176
881.00,0.0177
880.00,0.0176
879.00,0.0174
878.00,0.0172
877.00,0.0169
876.00,0.0167
875.00,0.0165
874.00,0.0164
873.00,0.0164
872.00,0.0164
871.00,0.0165
870.00,0.0165
869.00,0.0165
868.00,0.0162
867.00,0.0160
866.00,0.0160
865.00,0.0161
864.00,0.0163
863.00,0.0164
862.00,0.0164
861.00,0.0163
860.00,0.0163
859.00,0.0161
858.00,0.0159
857.00,0.0156
856.00,0.0155
855.00,0.0156
854.00,0.0156
853.00,0.0156
852.00,0.0155
851.00,0.0155
850.00,0.0157
849.00,0.0158
848.00,0.0159
847.00,0.0160
846.00,0.0162
845.00,0.0163
844.00,0.0164
843.00,0.0162
842.00,0.0160
841.00,0.0157
840.00,0.0155
839.00,0.0153
838.00,0.0152
837.00,0.0151
836.00,0.0151
835.00,0.0150
834.00,0.0150
833.00,0.0152
832.00,0.0154
831.00,0.0156
830.00,0.0157
829.00,0.0156
828.00,0.0154
827.00,0.0153
826.00,0.0154
825.00,0.0157
824.00,0.0160
823.00,0.0161
822.00,0.0162
821.00,0.0162
820.00,0.0162
819.00,0.0163
818.00,0.0162
817.00,0.0160
816.00,0.0158
815.00,0.0157
814.00,0.0158
813.00,0.0161
812.00,0.0164
811.00,0.0165
810.00,0.0165
809.00,0.0166
808.00,0.0167
807.00,0.0167
806.00,0.0167
805.00,0.0166
804.00,0.0165
803.00,0.0165
802.00,0.0166
801.00,0.0169
800.00,0.0173
799.00,0.0175
798.00,0.0176
797.00,0.0173
796.00,0.0170
795.00,0.0168
794.00,0.0168
793.00,0.0169
792.00,0.0172
791.00,0.0175
790.00,0.0178
789.00,0.0178
788.00,0.0177
787.00,0.0177
786.00,0.0177
785.00,0.0180
784.00,0.0182
783.00,0.0183
782.00,0.0184
781.00,0.0183
780.00,0.0181
779.00,0.0178
778.00,0.0177
777.00,0.0178
776.00,0.0180
775.00,0.0180
774.00,0.0178
773.00,0.0176
772.00,0.0175
771.00,0.0175
770.00,0.0176
769.00,0.0176
768.00,0.0176
767.00,0.0173
766.00,0.0171
765.00,0.0169
764.00,0.0170
763.00,0.0170
762.00,0.0170
761.00,0.0169
760.00,0.0169
759.00,0.0171
758.00,0.0174
757.00,0.0175
756.00,0.0175
755.00,0.0174
754.00,0.0172
753.00,0.0171
752.00,0.0172
751.00,0.0175
750.00,0.0178
749.00,0.0180
748.00,0.0182
747.00,0.0182
746.00,0.0182
745.00,0.0180
744.00,0.0178
743.00,0.0177
742.00,0.0177
741.00,0.0177
740.00,0.0176
739.00,0.0174
738.00,0.0171
737.00,0.0170
736.00,0.0169
735.00,0.0170
734.00,0.0170
733.00,0.0171
732.00,0.0171
731.00,0.0171
730.00,0.0172
729.00,0.0174
728.00,0.0178
727.00,0.0181
726.00,0.0183
725.00,0.0184
724.00,0.0183
723.00,0.0180
722.00,0.0178
721.00,0.0177
720.00,0.0177
719.00,0.0178
718.00,0.0178
717.00,0.0178
716.00,0.0176
715.00,0.0173
714.00,0.0172
713.00,0.0173
712.00,0.0176
711.00,0.0178
710.00,0.0178
709.00,0.0177
708.00,0.0177
707.00,0.0177
706.00,0.0178
705.00,0.0180
704.00,0.0182
703.00,0.0185
702.00,0.0185
701.00,0.0185
700.00,0.0183
699.00,0.0183
698.00,0.0183
697.00,0.0184
696.00,0.0184
695.00,0.0186
694.00,0.0188
693.00,0.0190
692.00,0.0190
691.00,0.0188
690.00,0.0187
689.00,0.0189
688.00,0.0190
687.00,0.0190
686.00,0.0188
685.00,0.0185
684.00,0.0182
683.00,0.0178
682.00,0.0175
681.00,0.0174
680.00,0.0176
679.00,0.0180
678.00,0.0183
677.00,0.0186
676.00,0.0187
675.00,0.0186
674.00,0.0183
673.00,0.0182
672.00,0.0183
671.00,0.0185
670.00,0.0189
669.00,0.0196
668.00,0.0204
667.00,0.0208
666.00,0.0207
665.00,0.0204
664.00,0.0200
663.00,0.0196
662.00,0.0190
661.00,0.0183
660.00,0.0175
659.00,0.0172
658.00,0.0175
657.00,0.0184
656.00,0.0194
655.00,0.0198
654.00,0.0194
653.00,0.0186
652.00,0.0179
651.00,0.0177
650.00,0.0179
