Created as New Dataset,Monday, April 03 2023
cm-1,A
4000.00,0.0097
3999.00,0.0097
3998.00,0.0097
3997.00,0.0097
3996.00,0.0096
3995.00,0.0096
3994.00,0.0096
3993.00,0.0096
3992.00,0.0096
3991.00,0.0096
3990.00,0.0096
3989.00,0.0095
3988.00,0.0095
3987.00,0.0095
3986.00,0.0095
3985.00,0.0096
3984.00,0.0096
3983.00,0.0096
3982.00,0.0096
3981.00,0.0096
3980.00,0.0095
3979.00,0.0095
3978.00,0.0095
3977.00,0.0094
3976.00,0.0094
3975.00,0.0094
3974.00,0.0095
3973.00,0.0095
3972.00,0.0095
3971.00,0.0096
3970.00,0.0096
3969.00,0.0096
3968.00,0.0095
3967.00,0.0094
3966.00,0.0094
3965.00,0.0093
3964.00,0.0094
3963.00,0.0095
3962.00,0.0095
3961.00,0.0095
3960.00,0.0095
3959.00,0.0094
3958.00,0.0094
3957.00,0.0094
3956.00,0.0094
3955.00,0.0093
3954.00,0.0093
3953.00,0.0092
3952.00,0.0093
3951.00,0.0093
3950.00,0.0094
3949.00,0.0095
3948.00,0.0095
3947.00,0.0095
3946.00,0.0094
3945.00,0.0093
3944.00,0.0093
3943.00,0.0092
3942.00,0.0092
3941.00,0.0092
3940.00,0.0092
3939.00,0.0092
3938.00,0.0093
3937.00,0.0093
3936.00,0.0092
3935.00,0.0092
3934.00,0.0091
3933.00,0.0091
3932.00,0.0092
3931.00,0.0092
3930.00,0.0092
3929.00,0.0092
3928.00,0.0092
3927.00,0.0093
3926.00,0.0093
3925.00,0.0093
3924.00,0.0093
3923.00,0.0093
3922.00,0.0092
3921.00,0.0091
3920.00,0.0091
3919.00,0.0091
3918.00,0.0091
3917.00,0.0092
3916.00,0.0091
3915.00,0.0091
3914.00,0.0090
3913.00,0.0090
3912.00,0.0091
3911.00,0.0091
3910.00,0.0091
3909.00,0.0091
3908.00,0.0089
3907.00,0.0088
3906.00,0.0086
3905.00,0.0086
3904.00,0.0085
3903.00,0.0084
3902.00,0.0084
3901.00,0.0084
3900.00,0.0085
3899.00,0.0085
3898.00,0.0086
3897.00,0.0086
3896.00,0.0087
3895.00,0.0087
3894.00,0.0088
3893.00,0.0089
3892.00,0.0089
3891.00,0.0088
3890.00,0.0085
3889.00,0.0083
3888.00,0.0082
3887.00,0.0082
3886.00,0.0082
3885.00,0.0083
3884.00,0.0083
3883.00,0.0083
3882.00,0.0083
3881.00,0.0084
3880.00,0.0085
3879.00,0.0085
3878.00,0.0085
3877.00,0.0086
3876.00,0.0087
3875.00,0.0087
3874.00,0.0086
3873.00,0.0084
3872.00,0.0083
3871.00,0.0083
3870.00,0.0083
3869.00,0.0083
3868.00,0.0082
3867.00,0.0081
3866.00,0.0082
3865.00,0.0084
3864.00,0.0086
3863.00,0.0088
3862.00,0.0088
3861.00,0.0087
3860.00,0.0087
3859.00,0.0085
3858.00,0.0082
3857.00,0.0077
3856.00,0.0071
3855.00,0.0069
3854.00,0.0071
3853.00,0.0072
3852.00,0.0072
3851.00,0.0074
3850.00,0.0078
3849.00,0.0082
3848.00,0.0085
3847.00,0.0087
3846.00,0.0087
3845.00,0.0087
3844.00,0.0086
3843.00,0.0085
3842.00,0.0083
3841.00,0.0082
3840.00,0.0082
3839.00,0.0082
3838.00,0.0082
3837.00,0.0081
3836.00,0.0081
3835.00,0.0081
3834.00,0.0082
3833.00,0.0083
3832.00,0.0085
3831.00,0.0086
3830.00,0.0087
3829.00,0.0087
3828.00,0.0088
3827.00,0.0087
3826.00,0.0086
3825.00,0.0085
3824.00,0.0083
3823.00,0.0083
3822.00,0.0083
3821.00,0.0083
3820.00,0.0081
3819.00,0.0079
3818.00,0.0078
3817.00,0.0080
3816.00,0.0083
3815.00,0.0085
3814.00,0.0087
3813.00,0.0088
3812.00,0.0088
3811.00,0.0087
3810.00,0.0085
3809.00,0.0084
3808.00,0.0084
3807.00,0.0084
3806.00,0.0084
3805.00,0.0083
3804.00,0.0083
3803.00,0.0084
3802.00,0.0085
3801.00,0.0086
3800.00,0.0085
3799.00,0.0085
3798.00,0.0085
3797.00,0.0086
3796.00,0.0087
3795.00,0.0087
3794.00,0.0088
3793.00,0.0089
3792.00,0.0089
3791.00,0.0090
3790.00,0.0091
3789.00,0.0091
3788.00,0.0091
3787.00,0.0091
3786.00,0.0092
3785.00,0.0092
3784.00,0.0092
3783.00,0.0091
3782.00,0.0089
3781.00,0.0088
3780.00,0.0088
3779.00,0.0088
3778.00,0.0089
3777.00,0.0089
3776.00,0.0089
3775.00,0.0089
3774.00,0.0088
3773.00,0.0087
3772.00,0.0086
3771.00,0.0086
3770.00,0.0086
3769.00,0.0085
3768.00,0.0084
3767.00,0.0085
3766.00,0.0086
3765.00,0.0087
3764.00,0.0087
3763.00,0.0087
3762.00,0.0087
3761.00,0.0087
3760.00,0.0088
3759.00,0.0088
3758.00,0.0086
3757.00,0.0084
3756.00,0.0082
3755.00,0.0079
3754.00,0.0076
3753.00,0.0074
3752.00,0.0075
3751.00,0.0076
3750.00,0.0076
3749.00,0.0075
3748.00,0.0073
3747.00,0.0072
3746.00,0.0072
3745.00,0.0072
3744.00,0.0072
3743.00,0.0072
3742.00,0.0073
3741.00,0.0077
3740.00,0.0080
3739.00,0.0082
3738.00,0.0083
3737.00,0.0083
3736.00,0.0083
3735.00,0.0083
3734.00,0.0082
3733.00,0.0080
3732.00,0.0080
3731.00,0.0080
3730.00,0.0081
3729.00,0.0083
3728.00,0.0084
3727.00,0.0086
3726.00,0.0087
3725.00,0.0087
3724.00,0.0086
3723.00,0.0086
3722.00,0.0087
3721.00,0.0088
3720.00,0.0088
3719.00,0.0089
3718.00,0.0088
3717.00,0.0087
3716.00,0.0085
3715.00,0.0083
3714.00,0.0082
3713.00,0.0082
3712.00,0.0084
3711.00,0.0084
3710.00,0.0083
3709.00,0.0082
3708.00,0.0083
3707.00,0.0085
3706.00,0.0087
3705.00,0.0089
3704.00,0.0090
3703.00,0.0089
3702.00,0.0089
3701.00,0.0088
3700.00,0.0088
3699.00,0.0088
3698.00,0.0089
3697.00,0.0089
3696.00,0.0089
3695.00,0.0088
3694.00,0.0086
3693.00,0.0084
3692.00,0.0082
3691.00,0.0083
3690.00,0.0084
3689.00,0.0085
3688.00,0.0084
3687.00,0.0084
3686.00,0.0085
3685.00,0.0086
3684.00,0.0088
3683.00,0.0088
3682.00,0.0088
3681.00,0.0086
3680.00,0.0083
3679.00,0.0079
3678.00,0.0075
3677.00,0.0073
3676.00,0.0073
3675.00,0.0072
3674.00,0.0070
3673.00,0.0070
3672.00,0.0071
3671.00,0.0075
3670.00,0.0080
3669.00,0.0082
3668.00,0.0082
3667.00,0.0082
3666.00,0.0083
3665.00,0.0084
3664.00,0.0086
3663.00,0.0087
3662.00,0.0088
3661.00,0.0088
3660.00,0.0088
3659.00,0.0087
3658.00,0.0087
3657.00,0.0087
3656.00,0.0086
3655.00,0.0084
3654.00,0.0082
3653.00,0.0080
3652.00,0.0078
3651.00,0.0077
3650.00,0.0078
3649.00,0.0079
3648.00,0.0079
3647.00,0.0079
3646.00,0.0081
3645.00,0.0083
3644.00,0.0086
3643.00,0.0089
3642.00,0.0091
3641.00,0.0092
3640.00,0.0093
3639.00,0.0092
3638.00,0.0092
3637.00,0.0092
3636.00,0.0091
3635.00,0.0091
3634.00,0.0090
3633.00,0.0088
3632.00,0.0085
3631.00,0.0083
3630.00,0.0083
3629.00,0.0085
3628.00,0.0085
3627.00,0.0085
3626.00,0.0086
3625.00,0.0088
3624.00,0.0090
3623.00,0.0090
3622.00,0.0090
3621.00,0.0090
3620.00,0.0091
3619.00,0.0092
3618.00,0.0092
3617.00,0.0092
3616.00,0.0092
3615.00,0.0092
3614.00,0.0093
3613.00,0.0093
3612.00,0.0092
3611.00,0.0091
3610.00,0.0091
3609.00,0.0092
3608.00,0.0094
3607.00,0.0095
3606.00,0.0095
3605.00,0.0094
3604.00,0.0094
3603.00,0.0095
3602.00,0.0097
3601.00,0.0099
3600.00,0.0100
3599.00,0.0099
3598.00,0.0098
3597.00,0.0097
3596.00,0.0097
3595.00,0.0097
3594.00,0.0097
3593.00,0.0096
3592.00,0.0095
3591.00,0.0094
3590.00,0.0093
3589.00,0.0093
3588.00,0.0094
3587.00,0.0095
3586.00,0.0095
3585.00,0.0095
3584.00,0.0096
3583.00,0.0097
3582.00,0.0098
3581.00,0.0098
3580.00,0.0099
3579.00,0.0099
3578.00,0.0099
3577.00,0.0100
3576.00,0.0100
3575.00,0.0100
3574.00,0.0100
3573.00,0.0100
3572.00,0.0099
3571.00,0.0097
3570.00,0.0095
3569.00,0.0094
3568.00,0.0096
3567.00,0.0098
3566.00,0.0099
3565.00,0.0099
3564.00,0.0098
3563.00,0.0098
3562.00,0.0099
3561.00,0.0100
3560.00,0.0101
3559.00,0.0102
3558.00,0.0102
3557.00,0.0102
3556.00,0.0103
3555.00,0.0103
3554.00,0.0103
3553.00,0.0104
3552.00,0.0104
3551.00,0.0105
3550.00,0.0105
3549.00,0.0105
3548.00,0.0105
3547.00,0.0105
3546.00,0.0106
3545.00,0.0106
3544.00,0.0106
3543.00,0.0106
3542.00,0.0106
3541.00,0.0105
3540.00,0.0105
3539.00,0.0104
3538.00,0.0104
3537.00,0.0104
3536.00,0.0104
3535.00,0.0105
3534.00,0.0105
3533.00,0.0106
3532.00,0.0106
3531.00,0.0106
3530.00,0.0105
3529.00,0.0104
3528.00,0.0104
3527.00,0.0103
3526.00,0.0104
3525.00,0.0105
3524.00,0.0106
3523.00,0.0107
3522.00,0.0107
3521.00,0.0106
3520.00,0.0105
3519.00,0.0104
3518.00,0.0104
3517.00,0.0103
3516.00,0.0103
3515.00,0.0103
3514.00,0.0104
3513.00,0.0105
3512.00,0.0106
3511.00,0.0107
3510.00,0.0106
3509.00,0.0106
3508.00,0.0105
3507.00,0.0105
3506.00,0.0105
3505.00,0.0106
3504.00,0.0107
3503.00,0.0108
3502.00,0.0109
3501.00,0.0108
3500.00,0.0108
3499.00,0.0108
3498.00,0.0108
3497.00,0.0109
3496.00,0.0109
3495.00,0.0108
3494.00,0.0108
3493.00,0.0107
3492.00,0.0107
3491.00,0.0107
3490.00,0.0107
3489.00,0.0106
3488.00,0.0106
3487.00,0.0106
3486.00,0.0106
3485.00,0.0106
3484.00,0.0106
3483.00,0.0106
3482.00,0.0107
3481.00,0.0107
3480.00,0.0107
3479.00,0.0107
3478.00,0.0107
3477.00,0.0107
3476.00,0.0108
3475.00,0.0109
3474.00,0.0109
3473.00,0.0109
3472.00,0.0109
3471.00,0.0109
3470.00,0.0109
3469.00,0.0110
3468.00,0.0109
3467.00,0.0109
3466.00,0.0109
3465.00,0.0110
3464.00,0.0110
3463.00,0.0109
3462.00,0.0108
3461.00,0.0108
3460.00,0.0107
3459.00,0.0108
3458.00,0.0109
3457.00,0.0109
3456.00,0.0109
3455.00,0.0108
3454.00,0.0108
3453.00,0.0108
3452.00,0.0108
3451.00,0.0109
3450.00,0.0109
3449.00,0.0110
3448.00,0.0110
3447.00,0.0110
3446.00,0.0110
3445.00,0.0110
3444.00,0.0110
3443.00,0.0110
3442.00,0.0109
3441.00,0.0108
3440.00,0.0107
3439.00,0.0107
3438.00,0.0107
3437.00,0.0107
3436.00,0.0107
3435.00,0.0107
3434.00,0.0106
3433.00,0.0107
3432.00,0.0107
3431.00,0.0108
3430.00,0.0108
3429.00,0.0108
3428.00,0.0108
3427.00,0.0108
3426.00,0.0108
3425.00,0.0109
3424.00,0.0110
3423.00,0.0110
3422.00,0.0110
3421.00,0.0110
3420.00,0.0110
3419.00,0.0110
3418.00,0.0111
3417.00,0.0110
3416.00,0.0109
3415.00,0.0108
3414.00,0.0108
3413.00,0.0108
3412.00,0.0109
3411.00,0.0109
3410.00,0.0110
3409.00,0.0110
3408.00,0.0110
3407.00,0.0110
3406.00,0.0110
3405.00,0.0110
3404.00,0.0109
3403.00,0.0108
3402.00,0.0108
3401.00,0.0109
3400.00,0.0109
3399.00,0.0110
3398.00,0.0109
3397.00,0.0109
3396.00,0.0108
3395.00,0.0108
3394.00,0.0108
3393.00,0.0108
3392.00,0.0109
3391.00,0.0110
3390.00,0.0110
3389.00,0.0110
3388.00,0.0110
3387.00,0.0110
3386.00,0.0109
3385.00,0.0109
3384.00,0.0109
3383.00,0.0110
3382.00,0.0110
3381.00,0.0110
3380.00,0.0110
3379.00,0.0110
3378.00,0.0110
3377.00,0.0110
3376.00,0.0110
3375.00,0.0110
3374.00,0.0110
3373.00,0.0110
3372.00,0.0109
3371.00,0.0108
3370.00,0.0108
3369.00,0.0108
3368.00,0.0108
3367.00,0.0108
3366.00,0.0108
3365.00,0.0107
3364.00,0.0107
3363.00,0.0108
3362.00,0.0109
3361.00,0.0110
3360.00,0.0111
3359.00,0.0111
3358.00,0.0111
3357.00,0.0110
3356.00,0.0110
3355.00,0.0111
3354.00,0.0111
3353.00,0.0111
3352.00,0.0111
3351.00,0.0111
3350.00,0.0111
3349.00,0.0111
3348.00,0.0111
3347.00,0.0111
3346.00,0.0110
3345.00,0.0110
3344.00,0.0109
3343.00,0.0109
3342.00,0.0109
3341.00,0.0109
3340.00,0.0109
3339.00,0.0110
3338.00,0.0110
3337.00,0.0110
3336.00,0.0110
3335.00,0.0110
3334.00,0.0109
3333.00,0.0109
3332.00,0.0109
3331.00,0.0108
3330.00,0.0108
3329.00,0.0107
3328.00,0.0107
3327.00,0.0108
3326.00,0.0109
3325.00,0.0110
3324.00,0.0111
3323.00,0.0111
3322.00,0.0110
3321.00,0.0109
3320.00,0.0109
3319.00,0.0109
3318.00,0.0109
3317.00,0.0109
3316.00,0.0109
3315.00,0.0109
3314.00,0.0109
3313.00,0.0109
3312.00,0.0108
3311.00,0.0108
3310.00,0.0108
3309.00,0.0109
3308.00,0.0110
3307.00,0.0110
3306.00,0.0110
3305.00,0.0110
3304.00,0.0109
3303.00,0.0109
3302.00,0.0109
3301.00,0.0108
3300.00,0.0108
3299.00,0.0108
3298.00,0.0108
3297.00,0.0109
3296.00,0.0110
3295.00,0.0111
3294.00,0.0111
3293.00,0.0110
3292.00,0.0110
3291.00,0.0109
3290.00,0.0109
3289.00,0.0109
3288.00,0.0109
3287.00,0.0109
3286.00,0.0109
3285.00,0.0110
3284.00,0.0110
3283.00,0.0110
3282.00,0.0110
3281.00,0.0110
3280.00,0.0109
3279.00,0.0109
3278.00,0.0109
3277.00,0.0109
3276.00,0.0109
3275.00,0.0109
3274.00,0.0109
3273.00,0.0109
3272.00,0.0110
3271.00,0.0110
3270.00,0.0110
3269.00,0.0111
3268.00,0.0111
3267.00,0.0110
3266.00,0.0110
3265.00,0.0109
3264.00,0.0108
3263.00,0.0108
3262.00,0.0108
3261.00,0.0108
3260.00,0.0109
3259.00,0.0110
3258.00,0.0110
3257.00,0.0109
3256.00,0.0109
3255.00,0.0109
3254.00,0.0109
3253.00,0.0109
3252.00,0.0110
3251.00,0.0109
3250.00,0.0109
3249.00,0.0109
3248.00,0.0109
3247.00,0.0109
3246.00,0.0109
3245.00,0.0109
3244.00,0.0109
3243.00,0.0108
3242.00,0.0108
3241.00,0.0108
3240.00,0.0108
3239.00,0.0108
3238.00,0.0109
3237.00,0.0110
3236.00,0.0111
3235.00,0.0112
3234.00,0.0112
3233.00,0.0111
3232.00,0.0111
3231.00,0.0110
3230.00,0.0110
3229.00,0.0109
3228.00,0.0109
3227.00,0.0109
3226.00,0.0109
3225.00,0.0109
3224.00,0.0109
3223.00,0.0109
3222.00,0.0109
3221.00,0.0109
3220.00,0.0109
3219.00,0.0109
3218.00,0.0109
3217.00,0.0109
3216.00,0.0110
3215.00,0.0110
3214.00,0.0111
3213.00,0.0110
3212.00,0.0110
3211.00,0.0109
3210.00,0.0108
3209.00,0.0108
3208.00,0.0108
3207.00,0.0108
3206.00,0.0109
3205.00,0.0109
3204.00,0.0110
3203.00,0.0110
3202.00,0.0110
3201.00,0.0110
3200.00,0.0110
3199.00,0.0110
3198.00,0.0110
3197.00,0.0110
3196.00,0.0110
3195.00,0.0109
3194.00,0.0110
3193.00,0.0110
3192.00,0.0109
3191.00,0.0109
3190.00,0.0108
3189.00,0.0108
3188.00,0.0107
3187.00,0.0107
3186.00,0.0107
3185.00,0.0108
3184.00,0.0108
3183.00,0.0109
3182.00,0.0110
3181.00,0.0110
3180.00,0.0110
3179.00,0.0109
3178.00,0.0107
3177.00,0.0106
3176.00,0.0106
3175.00,0.0107
3174.00,0.0107
3173.00,0.0108
3172.00,0.0108
3171.00,0.0107
3170.00,0.0107
3169.00,0.0107
3168.00,0.0108
3167.00,0.0108
3166.00,0.0109
3165.00,0.0109
3164.00,0.0110
3163.00,0.0110
3162.00,0.0110
3161.00,0.0109
3160.00,0.0108
3159.00,0.0107
3158.00,0.0106
3157.00,0.0106
3156.00,0.0107
3155.00,0.0107
3154.00,0.0108
3153.00,0.0109
3152.00,0.0109
3151.00,0.0108
3150.00,0.0108
3149.00,0.0108
3148.00,0.0108
3147.00,0.0108
3146.00,0.0107
3145.00,0.0107
3144.00,0.0107
3143.00,0.0107
3142.00,0.0107
3141.00,0.0107
3140.00,0.0107
3139.00,0.0107
3138.00,0.0108
3137.00,0.0108
3136.00,0.0108
3135.00,0.0108
3134.00,0.0108
3133.00,0.0108
3132.00,0.0108
3131.00,0.0108
3130.00,0.0108
3129.00,0.0108
3128.00,0.0108
3127.00,0.0107
3126.00,0.0107
3125.00,0.0107
3124.00,0.0108
3123.00,0.0108
3122.00,0.0107
3121.00,0.0107
3120.00,0.0107
3119.00,0.0107
3118.00,0.0107
3117.00,0.0107
3116.00,0.0107
3115.00,0.0107
3114.00,0.0108
3113.00,0.0108
3112.00,0.0108
3111.00,0.0107
3110.00,0.0107
3109.00,0.0107
3108.00,0.0107
3107.00,0.0107
3106.00,0.0108
3105.00,0.0108
3104.00,0.0108
3103.00,0.0108
3102.00,0.0108
3101.00,0.0107
3100.00,0.0107
3099.00,0.0107
3098.00,0.0106
3097.00,0.0107
3096.00,0.0107
3095.00,0.0109
3094.00,0.0110
3093.00,0.0110
3092.00,0.0110
3091.00,0.0109
3090.00,0.0108
3089.00,0.0107
3088.00,0.0106
3087.00,0.0106
3086.00,0.0107
3085.00,0.0107
3084.00,0.0107
3083.00,0.0107
3082.00,0.0108
3081.00,0.0108
3080.00,0.0108
3079.00,0.0108
3078.00,0.0108
3077.00,0.0108
3076.00,0.0108
3075.00,0.0108
3074.00,0.0109
3073.00,0.0109
3072.00,0.0109
3071.00,0.0109
3070.00,0.0109
3069.00,0.0109
3068.00,0.0109
3067.00,0.0109
3066.00,0.0109
3065.00,0.0108
3064.00,0.0108
3063.00,0.0107
3062.00,0.0107
3061.00,0.0108
3060.00,0.0108
3059.00,0.0108
3058.00,0.0108
3057.00,0.0108
3056.00,0.0108
3055.00,0.0108
3054.00,0.0107
3053.00,0.0107
3052.00,0.0107
3051.00,0.0108
3050.00,0.0108
3049.00,0.0109
3048.00,0.0109
3047.00,0.0109
3046.00,0.0109
3045.00,0.0109
3044.00,0.0109
3043.00,0.0108
3042.00,0.0107
3041.00,0.0107
3040.00,0.0107
3039.00,0.0107
3038.00,0.0107
3037.00,0.0108
3036.00,0.0108
3035.00,0.0109
3034.00,0.0109
3033.00,0.0109
3032.00,0.0109
3031.00,0.0108
3030.00,0.0107
3029.00,0.0107
3028.00,0.0106
3027.00,0.0106
3026.00,0.0106
3025.00,0.0107
3024.00,0.0106
3023.00,0.0107
3022.00,0.0107
3021.00,0.0107
3020.00,0.0106
3019.00,0.0106
3018.00,0.0105
3017.00,0.0104
3016.00,0.0104
3015.00,0.0104
3014.00,0.0103
3013.00,0.0102
3012.00,0.0102
3011.00,0.0101
3010.00,0.0100
3009.00,0.0099
3008.00,0.0097
3007.00,0.0095
3006.00,0.0094
3005.00,0.0093
3004.00,0.0092
3003.00,0.0091
3002.00,0.0089
3001.00,0.0088
3000.00,0.0086
2999.00,0.0085
2998.00,0.0084
2997.00,0.0083
2996.00,0.0082
2995.00,0.0081
2994.00,0.0081
2993.00,0.0080
2992.00,0.0079
2991.00,0.0078
2990.00,0.0078
2989.00,0.0077
2988.00,0.0076
2987.00,0.0074
2986.00,0.0071
2985.00,0.0067
2984.00,0.0062
2983.00,0.0059
2982.00,0.0057
2981.00,0.0057
2980.00,0.0059
2979.00,0.0062
2978.00,0.0064
2977.00,0.0066
2976.00,0.0068
2975.00,0.0068
2974.00,0.0068
2973.00,0.0067
2972.00,0.0066
2971.00,0.0067
2970.00,0.0068
2969.00,0.0071
2968.00,0.0073
2967.00,0.0074
2966.00,0.0075
2965.00,0.0076
2964.00,0.0077
2963.00,0.0078
2962.00,0.0079
2961.00,0.0080
2960.00,0.0080
2959.00,0.0080
2958.00,0.0080
2957.00,0.0081
2956.00,0.0082
2955.00,0.0084
2954.00,0.0085
2953.00,0.0086
2952.00,0.0087
2951.00,0.0088
2950.00,0.0088
2949.00,0.0089
2948.00,0.0089
2947.00,0.0089
2946.00,0.0090
2945.00,0.0090
2944.00,0.0091
2943.00,0.0092
2942.00,0.0092
2941.00,0.0093
2940.00,0.0092
2939.00,0.0092
2938.00,0.0091
2937.00,0.0092
2936.00,0.0092
2935.00,0.0093
2934.00,0.0093
2933.00,0.0092
2932.00,0.0092
2931.00,0.0092
2930.00,0.0092
2929.00,0.0093
2928.00,0.0093
2927.00,0.0093
2926.00,0.0093
2925.00,0.0092
2924.00,0.0092
2923.00,0.0092
2922.00,0.0091
2921.00,0.0091
2920.00,0.0090
2919.00,0.0090
2918.00,0.0089
2917.00,0.0089
2916.00,0.0089
2915.00,0.0090
2914.00,0.0090
2913.00,0.0090
2912.00,0.0090
2911.00,0.0091
2910.00,0.0091
2909.00,0.0091
2908.00,0.0090
2907.00,0.0090
2906.00,0.0090
2905.00,0.0090
2904.00,0.0090
2903.00,0.0090
2902.00,0.0090
2901.00,0.0090
2900.00,0.0090
2899.00,0.0090
2898.00,0.0089
2897.00,0.0089
2896.00,0.0089
2895.00,0.0089
2894.00,0.0088
2893.00,0.0088
2892.00,0.0088
2891.00,0.0088
2890.00,0.0089
2889.00,0.0089
2888.00,0.0089
2887.00,0.0089
2886.00,0.0089
2885.00,0.0088
2884.00,0.0088
2883.00,0.0088
2882.00,0.0089
2881.00,0.0090
2880.00,0.0091
2879.00,0.0091
2878.00,0.0092
2877.00,0.0092
2876.00,0.0092
2875.00,0.0092
2874.00,0.0093
2873.00,0.0093
2872.00,0.0093
2871.00,0.0093
2870.00,0.0093
2869.00,0.0093
2868.00,0.0093
2867.00,0.0093
2866.00,0.0094
2865.00,0.0094
2864.00,0.0095
2863.00,0.0095
2862.00,0.0095
2861.00,0.0096
2860.00,0.0096
2859.00,0.0097
2858.00,0.0097
2857.00,0.0098
2856.00,0.0098
2855.00,0.0097
2854.00,0.0097
2853.00,0.0096
2852.00,0.0097
2851.00,0.0097
2850.00,0.0098
2849.00,0.0098
2848.00,0.0098
2847.00,0.0098
2846.00,0.0098
2845.00,0.0098
2844.00,0.0099
2843.00,0.0099
2842.00,0.0099
2841.00,0.0099
2840.00,0.0098
2839.00,0.0098
2838.00,0.0098
2837.00,0.0099
2836.00,0.0099
2835.00,0.0100
2834.00,0.0100
2833.00,0.0100
2832.00,0.0099
2831.00,0.0098
2830.00,0.0098
2829.00,0.0098
2828.00,0.0099
2827.00,0.0100
2826.00,0.0100
2825.00,0.0100
2824.00,0.0100
2823.00,0.0099
2822.00,0.0099
2821.00,0.0099
2820.00,0.0098
2819.00,0.0098
2818.00,0.0098
2817.00,0.0098
2816.00,0.0098
2815.00,0.0098
2814.00,0.0097
2813.00,0.0097
2812.00,0.0098
2811.00,0.0098
2810.00,0.0098
2809.00,0.0098
2808.00,0.0098
2807.00,0.0098
2806.00,0.0098
2805.00,0.0099
2804.00,0.0099
2803.00,0.0099
2802.00,0.0098
2801.00,0.0098
2800.00,0.0099
2799.00,0.0099
2798.00,0.0099
2797.00,0.0099
2796.00,0.0099
2795.00,0.0098
2794.00,0.0098
2793.00,0.0099
2792.00,0.0099
2791.00,0.0099
2790.00,0.0099
2789.00,0.0099
2788.00,0.0099
2787.00,0.0098
2786.00,0.0098
2785.00,0.0098
2784.00,0.0098
2783.00,0.0098
2782.00,0.0097
2781.00,0.0097
2780.00,0.0096
2779.00,0.0096
2778.00,0.0096
2777.00,0.0097
2776.00,0.0097
2775.00,0.0098
2774.00,0.0098
2773.00,0.0098
2772.00,0.0098
2771.00,0.0097
2770.00,0.0096
2769.00,0.0095
2768.00,0.0095
2767.00,0.0095
2766.00,0.0095
2765.00,0.0096
2764.00,0.0096
2763.00,0.0096
2762.00,0.0096
2761.00,0.0096
2760.00,0.0096
2759.00,0.0096
2758.00,0.0096
2757.00,0.0096
2756.00,0.0096
2755.00,0.0096
2754.00,0.0096
2753.00,0.0096
2752.00,0.0096
2751.00,0.0096
2750.00,0.0097
2749.00,0.0097
2748.00,0.0097
2747.00,0.0097
2746.00,0.0097
2745.00,0.0097
2744.00,0.0097
2743.00,0.0097
2742.00,0.0097
2741.00,0.0097
2740.00,0.0096
2739.00,0.0096
2738.00,0.0095
2737.00,0.0095
2736.00,0.0095
2735.00,0.0095
2734.00,0.0095
2733.00,0.0095
2732.00,0.0096
2731.00,0.0096
2730.00,0.0096
2729.00,0.0096
2728.00,0.0095
2727.00,0.0095
2726.00,0.0095
2725.00,0.0095
2724.00,0.0095
2723.00,0.0095
2722.00,0.0095
2721.00,0.0095
2720.00,0.0095
2719.00,0.0095
2718.00,0.0096
2717.00,0.0096
2716.00,0.0096
2715.00,0.0095
2714.00,0.0095
2713.00,0.0095
2712.00,0.0095
2711.00,0.0095
2710.00,0.0095
2709.00,0.0095
2708.00,0.0094
2707.00,0.0094
2706.00,0.0094
2705.00,0.0094
2704.00,0.0094
2703.00,0.0094
2702.00,0.0094
2701.00,0.0094
2700.00,0.0094
2699.00,0.0094
2698.00,0.0094
2697.00,0.0094
2696.00,0.0094
2695.00,0.0094
2694.00,0.0094
2693.00,0.0095
2692.00,0.0095
2691.00,0.0095
2690.00,0.0095
2689.00,0.0095
2688.00,0.0094
2687.00,0.0094
2686.00,0.0094
2685.00,0.0094
2684.00,0.0094
2683.00,0.0094
2682.00,0.0094
2681.00,0.0094
2680.00,0.0094
2679.00,0.0093
2678.00,0.0092
2677.00,0.0092
2676.00,0.0092
2675.00,0.0092
2674.00,0.0092
2673.00,0.0093
2672.00,0.0093
2671.00,0.0093
2670.00,0.0093
2669.00,0.0092
2668.00,0.0093
2667.00,0.0093
2666.00,0.0093
2665.00,0.0093
2664.00,0.0093
2663.00,0.0093
2662.00,0.0093
2661.00,0.0093
2660.00,0.0093
2659.00,0.0093
2658.00,0.0094
2657.00,0.0094
2656.00,0.0094
2655.00,0.0094
2654.00,0.0094
2653.00,0.0094
2652.00,0.0094
2651.00,0.0094
2650.00,0.0094
2649.00,0.0094
2648.00,0.0094
2647.00,0.0093
2646.00,0.0093
2645.00,0.0093
2644.00,0.0093
2643.00,0.0094
2642.00,0.0094
2641.00,0.0094
2640.00,0.0094
2639.00,0.0094
2638.00,0.0094
2637.00,0.0094
2636.00,0.0094
2635.00,0.0094
2634.00,0.0094
2633.00,0.0094
2632.00,0.0094
2631.00,0.0094
2630.00,0.0094
2629.00,0.0093
2628.00,0.0092
2627.00,0.0092
2626.00,0.0093
2625.00,0.0093
2624.00,0.0094
2623.00,0.0095
2622.00,0.0095
2621.00,0.0095
2620.00,0.0095
2619.00,0.0095
2618.00,0.0095
2617.00,0.0095
2616.00,0.0094
2615.00,0.0094
2614.00,0.0094
2613.00,0.0094
2612.00,0.0095
2611.00,0.0096
2610.00,0.0096
2609.00,0.0095
2608.00,0.0094
2607.00,0.0094
2606.00,0.0094
2605.00,0.0095
2604.00,0.0096
2603.00,0.0096
2602.00,0.0096
2601.00,0.0096
2600.00,0.0095
2599.00,0.0095
2598.00,0.0095
2597.00,0.0094
2596.00,0.0094
2595.00,0.0093
2594.00,0.0093
2593.00,0.0094
2592.00,0.0095
2591.00,0.0095
2590.00,0.0096
2589.00,0.0096
2588.00,0.0096
2587.00,0.0095
2586.00,0.0095
2585.00,0.0094
2584.00,0.0093
2583.00,0.0093
2582.00,0.0094
2581.00,0.0095
2580.00,0.0095
2579.00,0.0096
2578.00,0.0096
2577.00,0.0095
2576.00,0.0095
2575.00,0.0094
2574.00,0.0094
2573.00,0.0094
2572.00,0.0094
2571.00,0.0094
2570.00,0.0093
2569.00,0.0093
2568.00,0.0094
2567.00,0.0095
2566.00,0.0096
2565.00,0.0097
2564.00,0.0097
2563.00,0.0096
2562.00,0.0096
2561.00,0.0097
2560.00,0.0097
2559.00,0.0097
2558.00,0.0097
2557.00,0.0098
2556.00,0.0098
2555.00,0.0097
2554.00,0.0096
2553.00,0.0095
2552.00,0.0094
2551.00,0.0092
2550.00,0.0092
2549.00,0.0091
2548.00,0.0091
2547.00,0.0091
2546.00,0.0092
2545.00,0.0093
2544.00,0.0093
2543.00,0.0093
2542.00,0.0093
2541.00,0.0092
2540.00,0.0091
2539.00,0.0090
2538.00,0.0090
2537.00,0.0090
2536.00,0.0090
2535.00,0.0091
2534.00,0.0092
2533.00,0.0093
2532.00,0.0093
2531.00,0.0093
2530.00,0.0092
2529.00,0.0092
2528.00,0.0092
2527.00,0.0092
2526.00,0.0091
2525.00,0.0090
2524.00,0.0090
2523.00,0.0090
2522.00,0.0091
2521.00,0.0091
2520.00,0.0091
2519.00,0.0091
2518.00,0.0092
2517.00,0.0094
2516.00,0.0094
2515.00,0.0094
2514.00,0.0093
2513.00,0.0092
2512.00,0.0091
2511.00,0.0091
2510.00,0.0092
2509.00,0.0093
2508.00,0.0094
2507.00,0.0094
2506.00,0.0094
2505.00,0.0093
2504.00,0.0093
2503.00,0.0093
2502.00,0.0093
2501.00,0.0094
2500.00,0.0094
2499.00,0.0094
2498.00,0.0094
2497.00,0.0094
2496.00,0.0094
2495.00,0.0094
2494.00,0.0094
2493.00,0.0094
2492.00,0.0094
2491.00,0.0094
2490.00,0.0095
2489.00,0.0095
2488.00,0.0096
2487.00,0.0096
2486.00,0.0095
2485.00,0.0094
2484.00,0.0093
2483.00,0.0092
2482.00,0.0093
2481.00,0.0094
2480.00,0.0094
2479.00,0.0095
2478.00,0.0094
2477.00,0.0094
2476.00,0.0093
2475.00,0.0093
2474.00,0.0093
2473.00,0.0093
2472.00,0.0093
2471.00,0.0093
2470.00,0.0093
2469.00,0.0093
2468.00,0.0093
2467.00,0.0092
2466.00,0.0092
2465.00,0.0091
2464.00,0.0091
2463.00,0.0091
2462.00,0.0091
2461.00,0.0092
2460.00,0.0092
2459.00,0.0093
2458.00,0.0093
2457.00,0.0094
2456.00,0.0094
2455.00,0.0094
2454.00,0.0095
2453.00,0.0095
2452.00,0.0096
2451.00,0.0096
2450.00,0.0095
2449.00,0.0094
2448.00,0.0094
2447.00,0.0093
2446.00,0.0093
2445.00,0.0093
2444.00,0.0092
2443.00,0.0092
2442.00,0.0093
2441.00,0.0093
2440.00,0.0093
2439.00,0.0093
2438.00,0.0093
2437.00,0.0092
2436.00,0.0092
2435.00,0.0092
2434.00,0.0092
2433.00,0.0091
2432.00,0.0091
2431.00,0.0092
2430.00,0.0092
2429.00,0.0092
2428.00,0.0093
2427.00,0.0093
2426.00,0.0093
2425.00,0.0093
2424.00,0.0093
2423.00,0.0093
2422.00,0.0093
2421.00,0.0093
2420.00,0.0093
2419.00,0.0093
2418.00,0.0092
2417.00,0.0092
2416.00,0.0091
2415.00,0.0091
2414.00,0.0092
2413.00,0.0092
2412.00,0.0093
2411.00,0.0093
2410.00,0.0093
2409.00,0.0093
2408.00,0.0092
2407.00,0.0092
2406.00,0.0092
2405.00,0.0092
2404.00,0.0092
2403.00,0.0091
2402.00,0.0091
2401.00,0.0090
2400.00,0.0090
2399.00,0.0090
2398.00,0.0090
2397.00,0.0090
2396.00,0.0090
2395.00,0.0090
2394.00,0.0089
2393.00,0.0089
2392.00,0.0089
2391.00,0.0089
2390.00,0.0088
2389.00,0.0089
2388.00,0.0088
2387.00,0.0088
2386.00,0.0088
2385.00,0.0088
2384.00,0.0088
2383.00,0.0087
2382.00,0.0087
2381.00,0.0088
2380.00,0.0089
2379.00,0.0089
2378.00,0.0090
2377.00,0.0089
2376.00,0.0088
2375.00,0.0087
2374.00,0.0087
2373.00,0.0087
2372.00,0.0087
2371.00,0.0087
2370.00,0.0086
2369.00,0.0084
2368.00,0.0082
2367.00,0.0083
2366.00,0.0086
2365.00,0.0088
2364.00,0.0088
2363.00,0.0086
2362.00,0.0085
2361.00,0.0087
2360.00,0.0089
2359.00,0.0090
2358.00,0.0090
2357.00,0.0089
2356.00,0.0088
2355.00,0.0087
2354.00,0.0086
2353.00,0.0087
2352.00,0.0087
2351.00,0.0087
2350.00,0.0087
2349.00,0.0086
2348.00,0.0085
2347.00,0.0084
2346.00,0.0084
2345.00,0.0085
2344.00,0.0087
2343.00,0.0089
2342.00,0.0091
2341.00,0.0092
2340.00,0.0092
2339.00,0.0090
2338.00,0.0089
2337.00,0.0087
2336.00,0.0086
2335.00,0.0087
2334.00,0.0088
2333.00,0.0089
2332.00,0.0089
2331.00,0.0088
2330.00,0.0087
2329.00,0.0086
2328.00,0.0086
2327.00,0.0086
2326.00,0.0087
2325.00,0.0087
2324.00,0.0087
2323.00,0.0087
2322.00,0.0087
2321.00,0.0088
2320.00,0.0088
2319.00,0.0087
2318.00,0.0087
2317.00,0.0086
2316.00,0.0086
2315.00,0.0087
2314.00,0.0087
2313.00,0.0087
2312.00,0.0088
2311.00,0.0089
2310.00,0.0090
2309.00,0.0091
2308.00,0.0091
2307.00,0.0089
2306.00,0.0089
2305.00,0.0089
2304.00,0.0088
2303.00,0.0088
2302.00,0.0087
2301.00,0.0086
2300.00,0.0086
2299.00,0.0087
2298.00,0.0087
2297.00,0.0088
2296.00,0.0088
2295.00,0.0087
2294.00,0.0088
2293.00,0.0089
2292.00,0.0091
2291.00,0.0092
2290.00,0.0092
2289.00,0.0091
2288.00,0.0091
2287.00,0.0091
2286.00,0.0092
2285.00,0.0093
2284.00,0.0095
2283.00,0.0096
2282.00,0.0096
2281.00,0.0096
2280.00,0.0095
2279.00,0.0095
2278.00,0.0094
2277.00,0.0094
2276.00,0.0093
2275.00,0.0092
2274.00,0.0091
2273.00,0.0090
2272.00,0.0090
2271.00,0.0091
2270.00,0.0091
2269.00,0.0091
2268.00,0.0091
2267.00,0.0091
2266.00,0.0091
2265.00,0.0091
2264.00,0.0091
2263.00,0.0092
2262.00,0.0093
2261.00,0.0094
2260.00,0.0094
2259.00,0.0094
2258.00,0.0092
2257.00,0.0090
2256.00,0.0087
2255.00,0.0087
2254.00,0.0087
2253.00,0.0088
2252.00,0.0089
2251.00,0.0089
2250.00,0.0089
2249.00,0.0089
2248.00,0.0088
2247.00,0.0089
2246.00,0.0090
2245.00,0.0092
2244.00,0.0093
2243.00,0.0093
2242.00,0.0093
2241.00,0.0093
2240.00,0.0092
2239.00,0.0091
2238.00,0.0090
2237.00,0.0089
2236.00,0.0089
2235.00,0.0089
2234.00,0.0090
2233.00,0.0092
2232.00,0.0092
2231.00,0.0090
2230.00,0.0089
2229.00,0.0089
2228.00,0.0089
2227.00,0.0090
2226.00,0.0090
2225.00,0.0090
2224.00,0.0089
2223.00,0.0088
2222.00,0.0087
2221.00,0.0087
2220.00,0.0086
2219.00,0.0086
2218.00,0.0087
2217.00,0.0088
2216.00,0.0089
2215.00,0.0091
2214.00,0.0092
2213.00,0.0092
2212.00,0.0090
2211.00,0.0088
2210.00,0.0087
2209.00,0.0088
2208.00,0.0089
2207.00,0.0089
2206.00,0.0089
2205.00,0.0088
2204.00,0.0087
2203.00,0.0087
2202.00,0.0087
2201.00,0.0088
2200.00,0.0088
2199.00,0.0088
2198.00,0.0088
2197.00,0.0088
2196.00,0.0088
2195.00,0.0088
2194.00,0.0087
2193.00,0.0085
2192.00,0.0084
2191.00,0.0082
2190.00,0.0080
2189.00,0.0079
2188.00,0.0080
2187.00,0.0085
2186.00,0.0091
2185.00,0.0094
2184.00,0.0093
2183.00,0.0090
2182.00,0.0086
2181.00,0.0085
2180.00,0.0085
2179.00,0.0087
2178.00,0.0089
2177.00,0.0090
2176.00,0.0089
2175.00,0.0088
2174.00,0.0086
2173.00,0.0085
2172.00,0.0085
2171.00,0.0087
2170.00,0.0089
2169.00,0.0091
2168.00,0.0092
2167.00,0.0092
2166.00,0.0094
2165.00,0.0096
2164.00,0.0098
2163.00,0.0100
2162.00,0.0101
2161.00,0.0099
2160.00,0.0094
2159.00,0.0087
2158.00,0.0082
2157.00,0.0080
2156.00,0.0080
2155.00,0.0082
2154.00,0.0084
2153.00,0.0086
2152.00,0.0086
2151.00,0.0084
2150.00,0.0080
2149.00,0.0079
2148.00,0.0079
2147.00,0.0082
2146.00,0.0085
2145.00,0.0086
2144.00,0.0087
2143.00,0.0087
2142.00,0.0089
2141.00,0.0090
2140.00,0.0091
2139.00,0.0089
2138.00,0.0088
2137.00,0.0086
2136.00,0.0085
2135.00,0.0084
2134.00,0.0083
2133.00,0.0083
2132.00,0.0084
2131.00,0.0084
2130.00,0.0085
2129.00,0.0087
2128.00,0.0088
2127.00,0.0088
2126.00,0.0088
2125.00,0.0087
2124.00,0.0086
2123.00,0.0085
2122.00,0.0085
2121.00,0.0084
2120.00,0.0084
2119.00,0.0083
2118.00,0.0083
2117.00,0.0083
2116.00,0.0083
2115.00,0.0082
2114.00,0.0081
2113.00,0.0080
2112.00,0.0081
2111.00,0.0083
2110.00,0.0085
2109.00,0.0087
2108.00,0.0088
2107.00,0.0088
2106.00,0.0088
2105.00,0.0088
2104.00,0.0087
2103.00,0.0086
2102.00,0.0087
2101.00,0.0087
2100.00,0.0086
2099.00,0.0085
2098.00,0.0083
2097.00,0.0082
2096.00,0.0083
2095.00,0.0084
2094.00,0.0084
2093.00,0.0085
2092.00,0.0085
2091.00,0.0083
2090.00,0.0082
2089.00,0.0081
2088.00,0.0081
2087.00,0.0082
2086.00,0.0083
2085.00,0.0085
2084.00,0.0086
2083.00,0.0087
2082.00,0.0086
2081.00,0.0086
2080.00,0.0085
2079.00,0.0085
2078.00,0.0086
2077.00,0.0086
2076.00,0.0086
2075.00,0.0087
2074.00,0.0087
2073.00,0.0087
2072.00,0.0087
2071.00,0.0088
2070.00,0.0087
2069.00,0.0086
2068.00,0.0083
2067.00,0.0082
2066.00,0.0081
2065.00,0.0082
2064.00,0.0083
2063.00,0.0085
2062.00,0.0086
2061.00,0.0085
2060.00,0.0084
2059.00,0.0083
2058.00,0.0083
2057.00,0.0084
2056.00,0.0085
2055.00,0.0086
2054.00,0.0088
2053.00,0.0090
2052.00,0.0090
2051.00,0.0089
2050.00,0.0086
2049.00,0.0084
2048.00,0.0083
2047.00,0.0084
2046.00,0.0086
2045.00,0.0089
2044.00,0.0091
2043.00,0.0092
2042.00,0.0092
2041.00,0.0089
2040.00,0.0086
2039.00,0.0084
2038.00,0.0084
2037.00,0.0087
2036.00,0.0091
2035.00,0.0092
2034.00,0.0091
2033.00,0.0089
2032.00,0.0090
2031.00,0.0092
2030.00,0.0093
2029.00,0.0091
2028.00,0.0089
2027.00,0.0086
2026.00,0.0085
2025.00,0.0082
2024.00,0.0080
2023.00,0.0078
2022.00,0.0078
2021.00,0.0078
2020.00,0.0078
2019.00,0.0076
2018.00,0.0074
2017.00,0.0074
2016.00,0.0075
2015.00,0.0077
2014.00,0.0079
2013.00,0.0079
2012.00,0.0079
2011.00,0.0079
2010.00,0.0079
2009.00,0.0080
2008.00,0.0080
2007.00,0.0080
2006.00,0.0080
2005.00,0.0079
2004.00,0.0079
2003.00,0.0081
2002.00,0.0085
2001.00,0.0088
2000.00,0.0089
1999.00,0.0087
1998.00,0.0085
1997.00,0.0085
1996.00,0.0086
1995.00,0.0089
1994.00,0.0091
1993.00,0.0091
1992.00,0.0089
1991.00,0.0085
1990.00,0.0082
1989.00,0.0080
1988.00,0.0079
1987.00,0.0079
1986.00,0.0080
1985.00,0.0081
1984.00,0.0083
1983.00,0.0084
1982.00,0.0085
1981.00,0.0085
1980.00,0.0084
1979.00,0.0080
1978.00,0.0076
1977.00,0.0074
1976.00,0.0074
1975.00,0.0077
1974.00,0.0081
1973.00,0.0083
1972.00,0.0082
1971.00,0.0080
1970.00,0.0080
1969.00,0.0081
1968.00,0.0082
1967.00,0.0081
1966.00,0.0079
1965.00,0.0079
1964.00,0.0079
1963.00,0.0079
1962.00,0.0080
1961.00,0.0080
1960.00,0.0081
1959.00,0.0081
1958.00,0.0081
1957.00,0.0081
1956.00,0.0080
1955.00,0.0079
1954.00,0.0079
1953.00,0.0080
1952.00,0.0080
1951.00,0.0079
1950.00,0.0077
1949.00,0.0076
1948.00,0.0076
1947.00,0.0077
1946.00,0.0078
1945.00,0.0077
1944.00,0.0075
1943.00,0.0074
1942.00,0.0074
1941.00,0.0074
1940.00,0.0073
1939.00,0.0073
1938.00,0.0072
1937.00,0.0073
1936.00,0.0073
1935.00,0.0072
1934.00,0.0071
1933.00,0.0070
1932.00,0.0071
1931.00,0.0072
1930.00,0.0074
1929.00,0.0077
1928.00,0.0078
1927.00,0.0079
1926.00,0.0079
1925.00,0.0078
1924.00,0.0077
1923.00,0.0076
1922.00,0.0075
1921.00,0.0076
1920.00,0.0076
1919.00,0.0075
1918.00,0.0075
1917.00,0.0074
1916.00,0.0074
1915.00,0.0074
1914.00,0.0074
1913.00,0.0074
1912.00,0.0074
1911.00,0.0074
1910.00,0.0074
1909.00,0.0073
1908.00,0.0072
1907.00,0.0071
1906.00,0.0071
1905.00,0.0072
1904.00,0.0073
1903.00,0.0073
1902.00,0.0074
1901.00,0.0074
1900.00,0.0074
1899.00,0.0074
1898.00,0.0074
1897.00,0.0073
1896.00,0.0072
1895.00,0.0070
1894.00,0.0070
1893.00,0.0071
1892.00,0.0072
1891.00,0.0072
1890.00,0.0072
1889.00,0.0072
1888.00,0.0071
1887.00,0.0071
1886.00,0.0071
1885.00,0.0072
1884.00,0.0073
1883.00,0.0073
1882.00,0.0074
1881.00,0.0073
1880.00,0.0073
1879.00,0.0072
1878.00,0.0071
1877.00,0.0069
1876.00,0.0069
1875.00,0.0070
1874.00,0.0071
1873.00,0.0072
1872.00,0.0072
1871.00,0.0072
1870.00,0.0072
1869.00,0.0071
1868.00,0.0070
1867.00,0.0069
1866.00,0.0069
1865.00,0.0069
1864.00,0.0069
1863.00,0.0068
1862.00,0.0068
1861.00,0.0067
1860.00,0.0067
1859.00,0.0066
1858.00,0.0067
1857.00,0.0068
1856.00,0.0069
1855.00,0.0069
1854.00,0.0069
1853.00,0.0068
1852.00,0.0068
1851.00,0.0068
1850.00,0.0069
1849.00,0.0069
1848.00,0.0069
1847.00,0.0069
1846.00,0.0069
1845.00,0.0069
1844.00,0.0068
1843.00,0.0068
1842.00,0.0068
1841.00,0.0068
1840.00,0.0069
1839.00,0.0068
1838.00,0.0068
1837.00,0.0068
1836.00,0.0068
1835.00,0.0067
1834.00,0.0067
1833.00,0.0068
1832.00,0.0068
1831.00,0.0069
1830.00,0.0068
1829.00,0.0067
1828.00,0.0066
1827.00,0.0066
1826.00,0.0066
1825.00,0.0066
1824.00,0.0065
1823.00,0.0065
1822.00,0.0065
1821.00,0.0066
1820.00,0.0066
1819.00,0.0065
1818.00,0.0065
1817.00,0.0064
1816.00,0.0063
1815.00,0.0063
1814.00,0.0062
1813.00,0.0063
1812.00,0.0063
1811.00,0.0063
1810.00,0.0063
1809.00,0.0064
1808.00,0.0064
1807.00,0.0064
1806.00,0.0064
1805.00,0.0064
1804.00,0.0063
1803.00,0.0063
1802.00,0.0063
1801.00,0.0064
1800.00,0.0063
1799.00,0.0063
1798.00,0.0063
1797.00,0.0063
1796.00,0.0063
1795.00,0.0063
1794.00,0.0063
1793.00,0.0064
1792.00,0.0064
1791.00,0.0064
1790.00,0.0064
1789.00,0.0064
1788.00,0.0064
1787.00,0.0064
1786.00,0.0064
1785.00,0.0064
1784.00,0.0064
1783.00,0.0064
1782.00,0.0065
1781.00,0.0065
1780.00,0.0064
1779.00,0.0064
1778.00,0.0065
1777.00,0.0066
1776.00,0.0066
1775.00,0.0067
1774.00,0.0067
1773.00,0.0067
1772.00,0.0066
1771.00,0.0065
1770.00,0.0065
1769.00,0.0067
1768.00,0.0067
1767.00,0.0067
1766.00,0.0068
1765.00,0.0069
1764.00,0.0069
1763.00,0.0069
1762.00,0.0068
1761.00,0.0067
1760.00,0.0067
1759.00,0.0068
1758.00,0.0068
1757.00,0.0068
1756.00,0.0068
1755.00,0.0070
1754.00,0.0071
1753.00,0.0072
1752.00,0.0071
1751.00,0.0070
1750.00,0.0069
1749.00,0.0069
1748.00,0.0069
1747.00,0.0069
1746.00,0.0070
1745.00,0.0071
1744.00,0.0072
1743.00,0.0073
1742.00,0.0073
1741.00,0.0074
1740.00,0.0074
1739.00,0.0074
1738.00,0.0074
1737.00,0.0074
1736.00,0.0075
1735.00,0.0076
1734.00,0.0077
1733.00,0.0077
1732.00,0.0077
1731.00,0.0078
1730.00,0.0078
1729.00,0.0078
1728.00,0.0078
1727.00,0.0078
1726.00,0.0079
1725.00,0.0080
1724.00,0.0082
1723.00,0.0082
1722.00,0.0082
1721.00,0.0082
1720.00,0.0081
1719.00,0.0081
1718.00,0.0081
1717.00,0.0082
1716.00,0.0083
1715.00,0.0085
1714.00,0.0086
1713.00,0.0087
1712.00,0.0087
1711.00,0.0087
1710.00,0.0087
1709.00,0.0087
1708.00,0.0087
1707.00,0.0087
1706.00,0.0087
1705.00,0.0087
1704.00,0.0087
1703.00,0.0088
1702.00,0.0088
1701.00,0.0088
1700.00,0.0086
1699.00,0.0085
1698.00,0.0086
1697.00,0.0088
1696.00,0.0088
1695.00,0.0087
1694.00,0.0087
1693.00,0.0088
1692.00,0.0088
1691.00,0.0088
1690.00,0.0088
1689.00,0.0088
1688.00,0.0088
1687.00,0.0087
1686.00,0.0086
1685.00,0.0085
1684.00,0.0084
1683.00,0.0083
1682.00,0.0084
1681.00,0.0085
1680.00,0.0084
1679.00,0.0084
1678.00,0.0086
1677.00,0.0087
1676.00,0.0089
1675.00,0.0089
1674.00,0.0088
1673.00,0.0088
1672.00,0.0087
1671.00,0.0086
1670.00,0.0086
1669.00,0.0086
1668.00,0.0085
1667.00,0.0086
1666.00,0.0086
1665.00,0.0086
1664.00,0.0086
1663.00,0.0086
1662.00,0.0086
1661.00,0.0087
1660.00,0.0088
1659.00,0.0090
1658.00,0.0090
1657.00,0.0090
1656.00,0.0088
1655.00,0.0086
1654.00,0.0086
1653.00,0.0087
1652.00,0.0086
1651.00,0.0088
1650.00,0.0090
1649.00,0.0090
1648.00,0.0090
1647.00,0.0091
1646.00,0.0092
1645.00,0.0093
1644.00,0.0094
1643.00,0.0095
1642.00,0.0095
1641.00,0.0094
1640.00,0.0093
1639.00,0.0093
1638.00,0.0093
1637.00,0.0093
1636.00,0.0095
1635.00,0.0096
1634.00,0.0096
1633.00,0.0096
1632.00,0.0096
1631.00,0.0096
1630.00,0.0096
1629.00,0.0096
1628.00,0.0096
1627.00,0.0096
1626.00,0.0097
1625.00,0.0098
1624.00,0.0100
1623.00,0.0100
1622.00,0.0100
1621.00,0.0100
1620.00,0.0100
1619.00,0.0100
1618.00,0.0100
1617.00,0.0101
1616.00,0.0101
1615.00,0.0101
1614.00,0.0102
1613.00,0.0103
1612.00,0.0103
1611.00,0.0103
1610.00,0.0104
1609.00,0.0104
1608.00,0.0104
1607.00,0.0104
1606.00,0.0105
1605.00,0.0106
1604.00,0.0106
1603.00,0.0106
1602.00,0.0105
1601.00,0.0104
1600.00,0.0104
1599.00,0.0104
1598.00,0.0105
1597.00,0.0106
1596.00,0.0107
1595.00,0.0108
1594.00,0.0109
1593.00,0.0109
1592.00,0.0109
1591.00,0.0108
1590.00,0.0108
1589.00,0.0108
1588.00,0.0109
1587.00,0.0110
1586.00,0.0110
1585.00,0.0110
1584.00,0.0110
1583.00,0.0110
1582.00,0.0110
1581.00,0.0110
1580.00,0.0110
1579.00,0.0111
1578.00,0.0112
1577.00,0.0113
1576.00,0.0113
1575.00,0.0111
1574.00,0.0111
1573.00,0.0110
1572.00,0.0110
1571.00,0.0111
1570.00,0.0112
1569.00,0.0112
1568.00,0.0111
1567.00,0.0112
1566.00,0.0112
1565.00,0.0111
1564.00,0.0111
1563.00,0.0110
1562.00,0.0110
1561.00,0.0109
1560.00,0.0111
1559.00,0.0116
1558.00,0.0114
1557.00,0.0112
1556.00,0.0111
1555.00,0.0111
1554.00,0.0112
1553.00,0.0113
1552.00,0.0114
1551.00,0.0114
1550.00,0.0113
1549.00,0.0111
1548.00,0.0110
1547.00,0.0109
1546.00,0.0108
1545.00,0.0109
1544.00,0.0109
1543.00,0.0108
1542.00,0.0108
1541.00,0.0108
1540.00,0.0108
1539.00,0.0106
1538.00,0.0105
1537.00,0.0106
1536.00,0.0106
1535.00,0.0105
1534.00,0.0106
1533.00,0.0106
1532.00,0.0106
1531.00,0.0105
1530.00,0.0105
1529.00,0.0104
1528.00,0.0104
1527.00,0.0103
1526.00,0.0103
1525.00,0.0102
1524.00,0.0101
1523.00,0.0100
1522.00,0.0101
1521.00,0.0101
1520.00,0.0102
1519.00,0.0103
1518.00,0.0103
1517.00,0.0102
1516.00,0.0101
1515.00,0.0101
1514.00,0.0101
1513.00,0.0101
1512.00,0.0100
1511.00,0.0099
1510.00,0.0098
1509.00,0.0097
1508.00,0.0099
1507.00,0.0101
1506.00,0.0099
1505.00,0.0099
1504.00,0.0099
1503.00,0.0099
1502.00,0.0098
1501.00,0.0097
1500.00,0.0096
1499.00,0.0097
1498.00,0.0098
1497.00,0.0100
1496.00,0.0100
1495.00,0.0099
1494.00,0.0098
1493.00,0.0097
1492.00,0.0096
1491.00,0.0096
1490.00,0.0096
1489.00,0.0096
1488.00,0.0095
1487.00,0.0095
1486.00,0.0094
1485.00,0.0093
1484.00,0.0093
1483.00,0.0093
1482.00,0.0092
1481.00,0.0092
1480.00,0.0092
1479.00,0.0092
1478.00,0.0091
1477.00,0.0092
1476.00,0.0092
1475.00,0.0091
1474.00,0.0091
1473.00,0.0091
1472.00,0.0091
1471.00,0.0091
1470.00,0.0092
1469.00,0.0093
1468.00,0.0093
1467.00,0.0093
1466.00,0.0092
1465.00,0.0091
1464.00,0.0090
1463.00,0.0089
1462.00,0.0089
1461.00,0.0088
1460.00,0.0087
1459.00,0.0087
1458.00,0.0089
1457.00,0.0090
1456.00,0.0090
1455.00,0.0089
1454.00,0.0089
1453.00,0.0089
1452.00,0.0090
1451.00,0.0091
1450.00,0.0092
1449.00,0.0093
1448.00,0.0094
1447.00,0.0094
1446.00,0.0095
1445.00,0.0095
1444.00,0.0095
1443.00,0.0095
1442.00,0.0094
1441.00,0.0094
1440.00,0.0094
1439.00,0.0095
1438.00,0.0096
1437.00,0.0097
1436.00,0.0098
1435.00,0.0097
1434.00,0.0096
1433.00,0.0095
1432.00,0.0094
1431.00,0.0094
1430.00,0.0093
1429.00,0.0093
1428.00,0.0093
1427.00,0.0093
1426.00,0.0093
1425.00,0.0093
1424.00,0.0093
1423.00,0.0093
1422.00,0.0093
1421.00,0.0094
1420.00,0.0095
1419.00,0.0096
1418.00,0.0097
1417.00,0.0098
1416.00,0.0098
1415.00,0.0097
1414.00,0.0096
1413.00,0.0094
1412.00,0.0093
1411.00,0.0093
1410.00,0.0092
1409.00,0.0092
1408.00,0.0091
1407.00,0.0091
1406.00,0.0091
1405.00,0.0090
1404.00,0.0090
1403.00,0.0089
1402.00,0.0088
1401.00,0.0087
1400.00,0.0086
1399.00,0.0086
1398.00,0.0085
1397.00,0.0085
1396.00,0.0084
1395.00,0.0084
1394.00,0.0084
1393.00,0.0084
1392.00,0.0084
1391.00,0.0084
1390.00,0.0084
1389.00,0.0084
1388.00,0.0085
1387.00,0.0085
1386.00,0.0085
1385.00,0.0084
1384.00,0.0083
1383.00,0.0083
1382.00,0.0083
1381.00,0.0084
1380.00,0.0085
1379.00,0.0086
1378.00,0.0086
1377.00,0.0087
1376.00,0.0088
1375.00,0.0090
1374.00,0.0091
1373.00,0.0091
1372.00,0.0092
1371.00,0.0092
1370.00,0.0093
1369.00,0.0093
1368.00,0.0094
1367.00,0.0094
1366.00,0.0094
1365.00,0.0094
1364.00,0.0095
1363.00,0.0095
1362.00,0.0097
1361.00,0.0097
1360.00,0.0098
1359.00,0.0098
1358.00,0.0098
1357.00,0.0099
1356.00,0.0100
1355.00,0.0101
1354.00,0.0101
1353.00,0.0101
1352.00,0.0101
1351.00,0.0100
1350.00,0.0100
1349.00,0.0099
1348.00,0.0100
1347.00,0.0100
1346.00,0.0100
1345.00,0.0100
1344.00,0.0100
1343.00,0.0099
1342.00,0.0100
1341.00,0.0100
1340.00,0.0102
1339.00,0.0102
1338.00,0.0103
1337.00,0.0103
1336.00,0.0102
1335.00,0.0102
1334.00,0.0102
1333.00,0.0102
1332.00,0.0102
1331.00,0.0102
1330.00,0.0102
1329.00,0.0102
1328.00,0.0102
1327.00,0.0102
1326.00,0.0102
1325.00,0.0102
1324.00,0.0103
1323.00,0.0104
1322.00,0.0105
1321.00,0.0105
1320.00,0.0105
1319.00,0.0105
1318.00,0.0103
1317.00,0.0102
1316.00,0.0102
1315.00,0.0102
1314.00,0.0102
1313.00,0.0104
1312.00,0.0105
1311.00,0.0106
1310.00,0.0106
1309.00,0.0106
1308.00,0.0105
1307.00,0.0104
1306.00,0.0104
1305.00,0.0104
1304.00,0.0105
1303.00,0.0107
1302.00,0.0107
1301.00,0.0107
1300.00,0.0107
1299.00,0.0106
1298.00,0.0105
1297.00,0.0104
1296.00,0.0104
1295.00,0.0104
1294.00,0.0105
1293.00,0.0106
1292.00,0.0107
1291.00,0.0107
1290.00,0.0108
1289.00,0.0107
1288.00,0.0107
1287.00,0.0107
1286.00,0.0106
1285.00,0.0107
1284.00,0.0107
1283.00,0.0108
1282.00,0.0108
1281.00,0.0108
1280.00,0.0107
1279.00,0.0106
1278.00,0.0105
1277.00,0.0105
1276.00,0.0105
1275.00,0.0105
1274.00,0.0106
1273.00,0.0106
1272.00,0.0105
1271.00,0.0105
1270.00,0.0105
1269.00,0.0105
1268.00,0.0105
1267.00,0.0105
1266.00,0.0106
1265.00,0.0107
1264.00,0.0106
1263.00,0.0105
1262.00,0.0105
1261.00,0.0105
1260.00,0.0106
1259.00,0.0107
1258.00,0.0107
1257.00,0.0108
1256.00,0.0107
1255.00,0.0106
1254.00,0.0106
1253.00,0.0107
1252.00,0.0107
1251.00,0.0107
1250.00,0.0107
1249.00,0.0107
1248.00,0.0108
1247.00,0.0109
1246.00,0.0110
1245.00,0.0112
1244.00,0.0113
1243.00,0.0113
1242.00,0.0113
1241.00,0.0112
1240.00,0.0112
1239.00,0.0112
1238.00,0.0113
1237.00,0.0115
1236.00,0.0116
1235.00,0.0116
1234.00,0.0116
1233.00,0.0116
1232.00,0.0117
1231.00,0.0118
1230.00,0.0118
1229.00,0.0119
1228.00,0.0120
1227.00,0.0120
1226.00,0.0120
1225.00,0.0120
1224.00,0.0120
1223.00,0.0120
1222.00,0.0121
1221.00,0.0122
1220.00,0.0123
1219.00,0.0123
1218.00,0.0124
1217.00,0.0124
1216.00,0.0124
1215.00,0.0125
1214.00,0.0125
1213.00,0.0125
1212.00,0.0126
1211.00,0.0127
1210.00,0.0128
1209.00,0.0128
1208.00,0.0128
1207.00,0.0127
1206.00,0.0127
1205.00,0.0126
1204.00,0.0126
1203.00,0.0127
1202.00,0.0127
1201.00,0.0127
1200.00,0.0127
1199.00,0.0127
1198.00,0.0126
1197.00,0.0126
1196.00,0.0126
1195.00,0.0127
1194.00,0.0127
1193.00,0.0128
1192.00,0.0128
1191.00,0.0128
1190.00,0.0126
1189.00,0.0125
1188.00,0.0124
1187.00,0.0124
1186.00,0.0125
1185.00,0.0126
1184.00,0.0126
1183.00,0.0126
1182.00,0.0125
1181.00,0.0123
1180.00,0.0121
1179.00,0.0120
1178.00,0.0120
1177.00,0.0120
1176.00,0.0120
1175.00,0.0121
1174.00,0.0121
1173.00,0.0122
1172.00,0.0121
1171.00,0.0120
1170.00,0.0118
1169.00,0.0118
1168.00,0.0118
1167.00,0.0118
1166.00,0.0119
1165.00,0.0120
1164.00,0.0120
1163.00,0.0120
1162.00,0.0119
1161.00,0.0118
1160.00,0.0118
1159.00,0.0118
1158.00,0.0117
1157.00,0.0118
1156.00,0.0118
1155.00,0.0119
1154.00,0.0120
1153.00,0.0120
1152.00,0.0120
1151.00,0.0119
1150.00,0.0118
1149.00,0.0117
1148.00,0.0117
1147.00,0.0118
1146.00,0.0119
1145.00,0.0121
1144.00,0.0122
1143.00,0.0123
1142.00,0.0124
1141.00,0.0124
1140.00,0.0124
1139.00,0.0124
1138.00,0.0125
1137.00,0.0126
1136.00,0.0126
1135.00,0.0127
1134.00,0.0128
1133.00,0.0128
1132.00,0.0128
1131.00,0.0128
1130.00,0.0129
1129.00,0.0131
1128.00,0.0132
1127.00,0.0133
1126.00,0.0131
1125.00,0.0128
1124.00,0.0128
1123.00,0.0131
1122.00,0.0135
1121.00,0.0139
1120.00,0.0141
1119.00,0.0142
1118.00,0.0141
1117.00,0.0141
1116.00,0.0142
1115.00,0.0143
1114.00,0.0143
1113.00,0.0143
1112.00,0.0143
1111.00,0.0144
1110.00,0.0145
1109.00,0.0145
1108.00,0.0145
1107.00,0.0144
1106.00,0.0142
1105.00,0.0141
1104.00,0.0142
1103.00,0.0144
1102.00,0.0146
1101.00,0.0147
1100.00,0.0146
1099.00,0.0146
1098.00,0.0145
1097.00,0.0144
1096.00,0.0143
1095.00,0.0142
1094.00,0.0142
1093.00,0.0144
1092.00,0.0145
1091.00,0.0146
1090.00,0.0145
1089.00,0.0143
1088.00,0.0140
1087.00,0.0139
1086.00,0.0139
1085.00,0.0140
1084.00,0.0141
1083.00,0.0142
1082.00,0.0144
1081.00,0.0145
1080.00,0.0147
1079.00,0.0148
1078.00,0.0151
1077.00,0.0152
1076.00,0.0152
1075.00,0.0149
1074.00,0.0146
1073.00,0.0145
1072.00,0.0145
1071.00,0.0145
1070.00,0.0145
1069.00,0.0144
1068.00,0.0143
1067.00,0.0143
1066.00,0.0145
1065.00,0.0147
1064.00,0.0148
1063.00,0.0149
1062.00,0.0148
1061.00,0.0146
1060.00,0.0144
1059.00,0.0144
1058.00,0.0146
1057.00,0.0149
1056.00,0.0151
1055.00,0.0151
1054.00,0.0152
1053.00,0.0153
1052.00,0.0154
1051.00,0.0154
1050.00,0.0154
1049.00,0.0156
1048.00,0.0157
1047.00,0.0158
1046.00,0.0159
1045.00,0.0159
1044.00,0.0160
1043.00,0.0159
1042.00,0.0158
1041.00,0.0156
1040.00,0.0156
1039.00,0.0156
1038.00,0.0157
1037.00,0.0158
1036.00,0.0158
1035.00,0.0158
1034.00,0.0157
1033.00,0.0157
1032.00,0.0157
1031.00,0.0157
1030.00,0.0156
1029.00,0.0154
1028.00,0.0153
1027.00,0.0152
1026.00,0.0153
1025.00,0.0153
1024.00,0.0153
1023.00,0.0153
1022.00,0.0152
1021.00,0.0151
1020.00,0.0151
1019.00,0.0150
1018.00,0.0149
1017.00,0.0148
1016.00,0.0148
1015.00,0.0149
1014.00,0.0150
1013.00,0.0150
1012.00,0.0150
1011.00,0.0151
1010.00,0.0151
1009.00,0.0151
1008.00,0.0150
1007.00,0.0148
1006.00,0.0146
1005.00,0.0145
1004.00,0.0145
1003.00,0.0146
1002.00,0.0146
1001.00,0.0145
1000.00,0.0143
999.00,0.0140
998.00,0.0137
997.00,0.0135
996.00,0.0136
995.00,0.0137
994.00,0.0137
993.00,0.0135
992.00,0.0132
991.00,0.0130
990.00,0.0130
989.00,0.0129
988.00,0.0130
987.00,0.0131
986.00,0.0132
985.00,0.0132
984.00,0.0131
983.00,0.0129
982.00,0.0126
981.00,0.0125
980.00,0.0125
979.00,0.0125
978.00,0.0123
977.00,0.0121
976.00,0.0118
975.00,0.0117
974.00,0.0117
973.00,0.0118
972.00,0.0118
971.00,0.0117
970.00,0.0115
969.00,0.0112
968.00,0.0111
967.00,0.0110
966.00,0.0109
965.00,0.0107
964.00,0.0106
963.00,0.0107
962.00,0.0108
961.00,0.0108
960.00,0.0107
959.00,0.0106
958.00,0.0105
957.00,0.0105
956.00,0.0105
955.00,0.0105
954.00,0.0104
953.00,0.0103
952.00,0.0103
951.00,0.0104
950.00,0.0105
949.00,0.0106
948.00,0.0107
947.00,0.0106
946.00,0.0104
945.00,0.0103
944.00,0.0102
943.00,0.0101
942.00,0.0101
941.00,0.0101
940.00,0.0102
939.00,0.0104
938.00,0.0106
937.00,0.0107
936.00,0.0107
935.00,0.0106
934.00,0.0106
933.00,0.0107
932.00,0.0109
931.00,0.0111
930.00,0.0112
929.00,0.0114
928.00,0.0115
927.00,0.0115
926.00,0.0115
925.00,0.0115
924.00,0.0116
923.00,0.0117
922.00,0.0118
921.00,0.0119
920.00,0.0119
919.00,0.0119
918.00,0.0119
917.00,0.0120
916.00,0.0121
915.00,0.0121
914.00,0.0121
913.00,0.0120
912.00,0.0119
911.00,0.0118
910.00,0.0117
909.00,0.0115
908.00,0.0113
907.00,0.0111
906.00,0.0111
905.00,0.0113
904.00,0.0117
903.00,0.0121
902.00,0.0123
901.00,0.0124
900.00,0.0122
899.00,0.0121
898.00,0.0120
897.00,0.0119
896.00,0.0117
895.00,0.0115
894.00,0.0115
893.00,0.0115
892.00,0.0115
891.00,0.0115
890.00,0.0115
889.00,0.0116
888.00,0.0116
887.00,0.0113
886.00,0.0110
885.00,0.0109
884.00,0.0110
883.00,0.0114
882.00,0.0118
881.00,0.0120
880.00,0.0120
879.00,0.0117
878.00,0.0113
877.00,0.0108
876.00,0.0104
875.00,0.0104
874.00,0.0105
873.00,0.0107
872.00,0.0110
871.00,0.0112
870.00,0.0112
869.00,0.0111
868.00,0.0108
867.00,0.0104
866.00,0.0102
865.00,0.0103
864.00,0.0106
863.00,0.0109
862.00,0.0112
861.00,0.0113
860.00,0.0113
859.00,0.0109
858.00,0.0105
857.00,0.0101
856.00,0.0100
855.00,0.0102
854.00,0.0106
853.00,0.0109
852.00,0.0110
851.00,0.0110
850.00,0.0110
849.00,0.0111
848.00,0.0112
847.00,0.0113
846.00,0.0114
845.00,0.0115
844.00,0.0117
843.00,0.0117
842.00,0.0116
841.00,0.0113
840.00,0.0110
839.00,0.0107
838.00,0.0105
837.00,0.0105
836.00,0.0106
835.00,0.0108
834.00,0.0109
833.00,0.0111
832.00,0.0112
831.00,0.0112
830.00,0.0111
829.00,0.0109
828.00,0.0108
827.00,0.0108
826.00,0.0111
825.00,0.0114
824.00,0.0116
823.00,0.0118
822.00,0.0118
821.00,0.0118
820.00,0.0117
819.00,0.0117
818.00,0.0115
817.00,0.0113
816.00,0.0110
815.00,0.0108
814.00,0.0109
813.00,0.0113
812.00,0.0116
811.00,0.0117
810.00,0.0118
809.00,0.0117
808.00,0.0117
807.00,0.0116
806.00,0.0114
805.00,0.0112
804.00,0.0112
803.00,0.0112
802.00,0.0115
801.00,0.0118
800.00,0.0122
799.00,0.0124
798.00,0.0123
797.00,0.0121
796.00,0.0118
795.00,0.0115
794.00,0.0114
793.00,0.0115
792.00,0.0118
791.00,0.0120
790.00,0.0122
789.00,0.0122
788.00,0.0120
787.00,0.0118
786.00,0.0117
785.00,0.0119
784.00,0.0122
783.00,0.0125
782.00,0.0127
781.00,0.0127
780.00,0.0126
779.00,0.0124
778.00,0.0122
777.00,0.0122
776.00,0.0122
775.00,0.0122
774.00,0.0121
773.00,0.0121
772.00,0.0122
771.00,0.0124
770.00,0.0126
769.00,0.0125
768.00,0.0123
767.00,0.0120
766.00,0.0116
765.00,0.0115
764.00,0.0115
763.00,0.0117
762.00,0.0118
761.00,0.0117
760.00,0.0116
759.00,0.0117
758.00,0.0119
757.00,0.0120
756.00,0.0119
755.00,0.0117
754.00,0.0116
753.00,0.0117
752.00,0.0120
751.00,0.0124
750.00,0.0127
749.00,0.0127
748.00,0.0127
747.00,0.0126
746.00,0.0125
745.00,0.0122
744.00,0.0120
743.00,0.0119
742.00,0.0119
741.00,0.0119
740.00,0.0117
739.00,0.0114
738.00,0.0111
737.00,0.0109
736.00,0.0108
735.00,0.0107
734.00,0.0106
733.00,0.0106
732.00,0.0106
731.00,0.0107
730.00,0.0109
729.00,0.0111
728.00,0.0114
727.00,0.0117
726.00,0.0118
725.00,0.0119
724.00,0.0118
723.00,0.0117
722.00,0.0118
721.00,0.0120
720.00,0.0121
719.00,0.0120
718.00,0.0117
717.00,0.0114
716.00,0.0111
715.00,0.0110
714.00,0.0110
713.00,0.0114
712.00,0.0118
711.00,0.0120
710.00,0.0119
709.00,0.0117
708.00,0.0114
707.00,0.0111
706.00,0.0110
705.00,0.0111
704.00,0.0115
703.00,0.0119
702.00,0.0122
701.00,0.0123
700.00,0.0122
699.00,0.0121
698.00,0.0121
697.00,0.0119
696.00,0.0117
695.00,0.0117
694.00,0.0119
693.00,0.0124
692.00,0.0129
691.00,0.0133
690.00,0.0133
689.00,0.0131
688.00,0.0124
687.00,0.0117
686.00,0.0113
685.00,0.0114
684.00,0.0117
683.00,0.0119
682.00,0.0121
681.00,0.0122
680.00,0.0122
679.00,0.0122
678.00,0.0121
677.00,0.0120
676.00,0.0119
675.00,0.0121
674.00,0.0125
673.00,0.0130
672.00,0.0136
671.00,0.0142
670.00,0.0146
669.00,0.0144
668.00,0.0136
667.00,0.0127
666.00,0.0125
665.00,0.0126
664.00,0.0127
663.00,0.0127
662.00,0.0126
661.00,0.0122
660.00,0.0117
659.00,0.0111
658.00,0.0110
657.00,0.0113
656.00,0.0116
655.00,0.0118
654.00,0.0116
653.00,0.0115
652.00,0.0113
651.00,0.0112
650.00,0.0113
