Created as New Dataset,Monday, April 03 2023
cm-1,A
4000.00,-0.0017
3999.00,-0.0017
3998.00,-0.0017
3997.00,-0.0017
3996.00,-0.0017
3995.00,-0.0017
3994.00,-0.0018
3993.00,-0.0018
3992.00,-0.0018
3991.00,-0.0018
3990.00,-0.0018
3989.00,-0.0018
3988.00,-0.0018
3987.00,-0.0018
3986.00,-0.0018
3985.00,-0.0018
3984.00,-0.0018
3983.00,-0.0018
3982.00,-0.0018
3981.00,-0.0018
3980.00,-0.0018
3979.00,-0.0018
3978.00,-0.0018
3977.00,-0.0018
3976.00,-0.0019
3975.00,-0.0019
3974.00,-0.0019
3973.00,-0.0018
3972.00,-0.0018
3971.00,-0.0017
3970.00,-0.0017
3969.00,-0.0017
3968.00,-0.0018
3967.00,-0.0018
3966.00,-0.0019
3965.00,-0.0018
3964.00,-0.0018
3963.00,-0.0017
3962.00,-0.0017
3961.00,-0.0017
3960.00,-0.0017
3959.00,-0.0018
3958.00,-0.0018
3957.00,-0.0018
3956.00,-0.0018
3955.00,-0.0018
3954.00,-0.0019
3953.00,-0.0019
3952.00,-0.0019
3951.00,-0.0018
3950.00,-0.0018
3949.00,-0.0017
3948.00,-0.0017
3947.00,-0.0016
3946.00,-0.0017
3945.00,-0.0017
3944.00,-0.0018
3943.00,-0.0020
3942.00,-0.0020
3941.00,-0.0020
3940.00,-0.0020
3939.00,-0.0019
3938.00,-0.0019
3937.00,-0.0019
3936.00,-0.0019
3935.00,-0.0019
3934.00,-0.0019
3933.00,-0.0019
3932.00,-0.0019
3931.00,-0.0019
3930.00,-0.0019
3929.00,-0.0019
3928.00,-0.0019
3927.00,-0.0019
3926.00,-0.0019
3925.00,-0.0019
3924.00,-0.0018
3923.00,-0.0018
3922.00,-0.0018
3921.00,-0.0018
3920.00,-0.0018
3919.00,-0.0018
3918.00,-0.0018
3917.00,-0.0017
3916.00,-0.0017
3915.00,-0.0018
3914.00,-0.0018
3913.00,-0.0019
3912.00,-0.0019
3911.00,-0.0019
3910.00,-0.0019
3909.00,-0.0019
3908.00,-0.0019
3907.00,-0.0019
3906.00,-0.0018
3905.00,-0.0018
3904.00,-0.0017
3903.00,-0.0016
3902.00,-0.0016
3901.00,-0.0015
3900.00,-0.0015
3899.00,-0.0016
3898.00,-0.0017
3897.00,-0.0017
3896.00,-0.0018
3895.00,-0.0018
3894.00,-0.0018
3893.00,-0.0019
3892.00,-0.0019
3891.00,-0.0020
3890.00,-0.0020
3889.00,-0.0020
3888.00,-0.0019
3887.00,-0.0019
3886.00,-0.0019
3885.00,-0.0020
3884.00,-0.0020
3883.00,-0.0020
3882.00,-0.0021
3881.00,-0.0021
3880.00,-0.0021
3879.00,-0.0020
3878.00,-0.0019
3877.00,-0.0017
3876.00,-0.0017
3875.00,-0.0017
3874.00,-0.0019
3873.00,-0.0019
3872.00,-0.0019
3871.00,-0.0019
3870.00,-0.0019
3869.00,-0.0019
3868.00,-0.0018
3867.00,-0.0018
3866.00,-0.0018
3865.00,-0.0018
3864.00,-0.0018
3863.00,-0.0017
3862.00,-0.0017
3861.00,-0.0016
3860.00,-0.0017
3859.00,-0.0017
3858.00,-0.0019
3857.00,-0.0020
3856.00,-0.0021
3855.00,-0.0020
3854.00,-0.0020
3853.00,-0.0020
3852.00,-0.0020
3851.00,-0.0020
3850.00,-0.0020
3849.00,-0.0021
3848.00,-0.0021
3847.00,-0.0020
3846.00,-0.0020
3845.00,-0.0019
3844.00,-0.0019
3843.00,-0.0019
3842.00,-0.0019
3841.00,-0.0018
3840.00,-0.0018
3839.00,-0.0019
3838.00,-0.0019
3837.00,-0.0020
3836.00,-0.0020
3835.00,-0.0020
3834.00,-0.0019
3833.00,-0.0018
3832.00,-0.0017
3831.00,-0.0017
3830.00,-0.0017
3829.00,-0.0017
3828.00,-0.0018
3827.00,-0.0019
3826.00,-0.0019
3825.00,-0.0019
3824.00,-0.0017
3823.00,-0.0016
3822.00,-0.0016
3821.00,-0.0017
3820.00,-0.0018
3819.00,-0.0019
3818.00,-0.0020
3817.00,-0.0020
3816.00,-0.0021
3815.00,-0.0020
3814.00,-0.0019
3813.00,-0.0019
3812.00,-0.0019
3811.00,-0.0019
3810.00,-0.0020
3809.00,-0.0020
3808.00,-0.0019
3807.00,-0.0018
3806.00,-0.0017
3805.00,-0.0017
3804.00,-0.0016
3803.00,-0.0016
3802.00,-0.0017
3801.00,-0.0019
3800.00,-0.0019
3799.00,-0.0019
3798.00,-0.0019
3797.00,-0.0019
3796.00,-0.0019
3795.00,-0.0019
3794.00,-0.0019
3793.00,-0.0019
3792.00,-0.0019
3791.00,-0.0019
3790.00,-0.0019
3789.00,-0.0018
3788.00,-0.0018
3787.00,-0.0017
3786.00,-0.0017
3785.00,-0.0017
3784.00,-0.0017
3783.00,-0.0017
3782.00,-0.0017
3781.00,-0.0018
3780.00,-0.0018
3779.00,-0.0019
3778.00,-0.0019
3777.00,-0.0019
3776.00,-0.0019
3775.00,-0.0019
3774.00,-0.0019
3773.00,-0.0019
3772.00,-0.0019
3771.00,-0.0019
3770.00,-0.0019
3769.00,-0.0019
3768.00,-0.0019
3767.00,-0.0018
3766.00,-0.0018
3765.00,-0.0018
3764.00,-0.0018
3763.00,-0.0017
3762.00,-0.0017
3761.00,-0.0017
3760.00,-0.0017
3759.00,-0.0018
3758.00,-0.0018
3757.00,-0.0018
3756.00,-0.0019
3755.00,-0.0019
3754.00,-0.0020
3753.00,-0.0020
3752.00,-0.0019
3751.00,-0.0018
3750.00,-0.0018
3749.00,-0.0017
3748.00,-0.0016
3747.00,-0.0016
3746.00,-0.0016
3745.00,-0.0016
3744.00,-0.0017
3743.00,-0.0018
3742.00,-0.0018
3741.00,-0.0017
3740.00,-0.0016
3739.00,-0.0015
3738.00,-0.0014
3737.00,-0.0014
3736.00,-0.0015
3735.00,-0.0016
3734.00,-0.0016
3733.00,-0.0016
3732.00,-0.0016
3731.00,-0.0016
3730.00,-0.0016
3729.00,-0.0017
3728.00,-0.0017
3727.00,-0.0016
3726.00,-0.0017
3725.00,-0.0017
3724.00,-0.0017
3723.00,-0.0018
3722.00,-0.0017
3721.00,-0.0017
3720.00,-0.0016
3719.00,-0.0016
3718.00,-0.0017
3717.00,-0.0017
3716.00,-0.0018
3715.00,-0.0017
3714.00,-0.0016
3713.00,-0.0015
3712.00,-0.0015
3711.00,-0.0016
3710.00,-0.0018
3709.00,-0.0018
3708.00,-0.0017
3707.00,-0.0016
3706.00,-0.0014
3705.00,-0.0013
3704.00,-0.0014
3703.00,-0.0015
3702.00,-0.0016
3701.00,-0.0017
3700.00,-0.0016
3699.00,-0.0016
3698.00,-0.0015
3697.00,-0.0016
3696.00,-0.0016
3695.00,-0.0016
3694.00,-0.0016
3693.00,-0.0016
3692.00,-0.0016
3691.00,-0.0016
3690.00,-0.0015
3689.00,-0.0014
3688.00,-0.0014
3687.00,-0.0014
3686.00,-0.0014
3685.00,-0.0015
3684.00,-0.0015
3683.00,-0.0015
3682.00,-0.0016
3681.00,-0.0016
3680.00,-0.0017
3679.00,-0.0018
3678.00,-0.0019
3677.00,-0.0018
3676.00,-0.0018
3675.00,-0.0018
3674.00,-0.0018
3673.00,-0.0018
3672.00,-0.0016
3671.00,-0.0015
3670.00,-0.0014
3669.00,-0.0014
3668.00,-0.0014
3667.00,-0.0015
3666.00,-0.0015
3665.00,-0.0015
3664.00,-0.0015
3663.00,-0.0015
3662.00,-0.0015
3661.00,-0.0014
3660.00,-0.0013
3659.00,-0.0011
3658.00,-0.0010
3657.00,-0.0010
3656.00,-0.0009
3655.00,-0.0009
3654.00,-0.0009
3653.00,-0.0009
3652.00,-0.0009
3651.00,-0.0009
3650.00,-0.0010
3649.00,-0.0011
3648.00,-0.0011
3647.00,-0.0011
3646.00,-0.0011
3645.00,-0.0010
3644.00,-0.0009
3643.00,-0.0009
3642.00,-0.0008
3641.00,-0.0008
3640.00,-0.0008
3639.00,-0.0007
3638.00,-0.0007
3637.00,-0.0007
3636.00,-0.0006
3635.00,-0.0006
3634.00,-0.0005
3633.00,-0.0005
3632.00,-0.0005
3631.00,-0.0004
3630.00,-0.0003
3629.00,-0.0002
3628.00,-0.0001
3627.00,-0.0002
3626.00,-0.0002
3625.00,-0.0003
3624.00,-0.0004
3623.00,-0.0004
3622.00,-0.0004
3621.00,-0.0003
3620.00,-0.0001
3619.00,-0.0000
3618.00,-0.0000
3617.00,-0.0000
3616.00,-0.0000
3615.00,-0.0000
3614.00,-0.0000
3613.00,-0.0000
3612.00,0.0000
3611.00,0.0002
3610.00,0.0003
3609.00,0.0004
3608.00,0.0005
3607.00,0.0004
3606.00,0.0003
3605.00,0.0002
3604.00,0.0002
3603.00,0.0002
3602.00,0.0003
3601.00,0.0004
3600.00,0.0004
3599.00,0.0003
3598.00,0.0003
3597.00,0.0002
3596.00,0.0002
3595.00,0.0002
3594.00,0.0002
3593.00,0.0002
3592.00,0.0003
3591.00,0.0003
3590.00,0.0004
3589.00,0.0005
3588.00,0.0005
3587.00,0.0005
3586.00,0.0006
3585.00,0.0006
3584.00,0.0006
3583.00,0.0005
3582.00,0.0005
3581.00,0.0005
3580.00,0.0004
3579.00,0.0005
3578.00,0.0005
3577.00,0.0005
3576.00,0.0006
3575.00,0.0007
3574.00,0.0008
3573.00,0.0008
3572.00,0.0008
3571.00,0.0008
3570.00,0.0007
3569.00,0.0007
3568.00,0.0008
3567.00,0.0010
3566.00,0.0010
3565.00,0.0010
3564.00,0.0009
3563.00,0.0009
3562.00,0.0009
3561.00,0.0009
3560.00,0.0009
3559.00,0.0010
3558.00,0.0011
3557.00,0.0012
3556.00,0.0012
3555.00,0.0013
3554.00,0.0013
3553.00,0.0013
3552.00,0.0013
3551.00,0.0014
3550.00,0.0015
3549.00,0.0015
3548.00,0.0016
3547.00,0.0016
3546.00,0.0016
3545.00,0.0016
3544.00,0.0016
3543.00,0.0016
3542.00,0.0016
3541.00,0.0016
3540.00,0.0015
3539.00,0.0014
3538.00,0.0014
3537.00,0.0013
3536.00,0.0014
3535.00,0.0015
3534.00,0.0016
3533.00,0.0016
3532.00,0.0017
3531.00,0.0016
3530.00,0.0016
3529.00,0.0015
3528.00,0.0014
3527.00,0.0014
3526.00,0.0015
3525.00,0.0016
3524.00,0.0018
3523.00,0.0018
3522.00,0.0018
3521.00,0.0017
3520.00,0.0016
3519.00,0.0016
3518.00,0.0015
3517.00,0.0015
3516.00,0.0014
3515.00,0.0015
3514.00,0.0015
3513.00,0.0016
3512.00,0.0017
3511.00,0.0018
3510.00,0.0018
3509.00,0.0018
3508.00,0.0018
3507.00,0.0019
3506.00,0.0019
3505.00,0.0019
3504.00,0.0020
3503.00,0.0020
3502.00,0.0021
3501.00,0.0020
3500.00,0.0020
3499.00,0.0020
3498.00,0.0021
3497.00,0.0021
3496.00,0.0021
3495.00,0.0020
3494.00,0.0020
3493.00,0.0020
3492.00,0.0020
3491.00,0.0020
3490.00,0.0020
3489.00,0.0020
3488.00,0.0020
3487.00,0.0020
3486.00,0.0020
3485.00,0.0020
3484.00,0.0020
3483.00,0.0020
3482.00,0.0021
3481.00,0.0021
3480.00,0.0020
3479.00,0.0020
3478.00,0.0021
3477.00,0.0021
3476.00,0.0022
3475.00,0.0022
3474.00,0.0023
3473.00,0.0023
3472.00,0.0023
3471.00,0.0024
3470.00,0.0024
3469.00,0.0024
3468.00,0.0023
3467.00,0.0023
3466.00,0.0024
3465.00,0.0024
3464.00,0.0024
3463.00,0.0024
3462.00,0.0022
3461.00,0.0021
3460.00,0.0021
3459.00,0.0022
3458.00,0.0024
3457.00,0.0024
3456.00,0.0023
3455.00,0.0022
3454.00,0.0022
3453.00,0.0022
3452.00,0.0022
3451.00,0.0023
3450.00,0.0024
3449.00,0.0024
3448.00,0.0024
3447.00,0.0024
3446.00,0.0024
3445.00,0.0024
3444.00,0.0024
3443.00,0.0024
3442.00,0.0024
3441.00,0.0023
3440.00,0.0022
3439.00,0.0022
3438.00,0.0022
3437.00,0.0022
3436.00,0.0022
3435.00,0.0022
3434.00,0.0022
3433.00,0.0022
3432.00,0.0022
3431.00,0.0023
3430.00,0.0023
3429.00,0.0023
3428.00,0.0023
3427.00,0.0023
3426.00,0.0023
3425.00,0.0024
3424.00,0.0025
3423.00,0.0025
3422.00,0.0025
3421.00,0.0025
3420.00,0.0024
3419.00,0.0025
3418.00,0.0025
3417.00,0.0025
3416.00,0.0024
3415.00,0.0024
3414.00,0.0024
3413.00,0.0024
3412.00,0.0024
3411.00,0.0025
3410.00,0.0025
3409.00,0.0025
3408.00,0.0025
3407.00,0.0025
3406.00,0.0025
3405.00,0.0025
3404.00,0.0024
3403.00,0.0023
3402.00,0.0023
3401.00,0.0023
3400.00,0.0024
3399.00,0.0024
3398.00,0.0024
3397.00,0.0024
3396.00,0.0023
3395.00,0.0023
3394.00,0.0023
3393.00,0.0023
3392.00,0.0024
3391.00,0.0024
3390.00,0.0025
3389.00,0.0025
3388.00,0.0025
3387.00,0.0024
3386.00,0.0023
3385.00,0.0023
3384.00,0.0023
3383.00,0.0024
3382.00,0.0024
3381.00,0.0025
3380.00,0.0025
3379.00,0.0025
3378.00,0.0025
3377.00,0.0025
3376.00,0.0024
3375.00,0.0024
3374.00,0.0024
3373.00,0.0023
3372.00,0.0022
3371.00,0.0022
3370.00,0.0021
3369.00,0.0022
3368.00,0.0022
3367.00,0.0022
3366.00,0.0022
3365.00,0.0021
3364.00,0.0020
3363.00,0.0021
3362.00,0.0022
3361.00,0.0023
3360.00,0.0023
3359.00,0.0023
3358.00,0.0023
3357.00,0.0022
3356.00,0.0022
3355.00,0.0022
3354.00,0.0022
3353.00,0.0023
3352.00,0.0023
3351.00,0.0023
3350.00,0.0023
3349.00,0.0023
3348.00,0.0022
3347.00,0.0022
3346.00,0.0021
3345.00,0.0021
3344.00,0.0021
3343.00,0.0021
3342.00,0.0021
3341.00,0.0021
3340.00,0.0022
3339.00,0.0022
3338.00,0.0022
3337.00,0.0022
3336.00,0.0021
3335.00,0.0021
3334.00,0.0021
3333.00,0.0021
3332.00,0.0021
3331.00,0.0020
3330.00,0.0019
3329.00,0.0018
3328.00,0.0017
3327.00,0.0018
3326.00,0.0019
3325.00,0.0020
3324.00,0.0021
3323.00,0.0021
3322.00,0.0020
3321.00,0.0019
3320.00,0.0019
3319.00,0.0018
3318.00,0.0018
3317.00,0.0018
3316.00,0.0018
3315.00,0.0018
3314.00,0.0018
3313.00,0.0018
3312.00,0.0018
3311.00,0.0018
3310.00,0.0018
3309.00,0.0019
3308.00,0.0019
3307.00,0.0019
3306.00,0.0018
3305.00,0.0017
3304.00,0.0017
3303.00,0.0017
3302.00,0.0017
3301.00,0.0017
3300.00,0.0017
3299.00,0.0017
3298.00,0.0017
3297.00,0.0018
3296.00,0.0018
3295.00,0.0018
3294.00,0.0018
3293.00,0.0017
3292.00,0.0016
3291.00,0.0015
3290.00,0.0015
3289.00,0.0016
3288.00,0.0016
3287.00,0.0016
3286.00,0.0017
3285.00,0.0017
3284.00,0.0017
3283.00,0.0017
3282.00,0.0017
3281.00,0.0016
3280.00,0.0016
3279.00,0.0016
3278.00,0.0015
3277.00,0.0015
3276.00,0.0016
3275.00,0.0016
3274.00,0.0016
3273.00,0.0016
3272.00,0.0016
3271.00,0.0017
3270.00,0.0017
3269.00,0.0017
3268.00,0.0017
3267.00,0.0017
3266.00,0.0016
3265.00,0.0015
3264.00,0.0014
3263.00,0.0013
3262.00,0.0013
3261.00,0.0014
3260.00,0.0014
3259.00,0.0015
3258.00,0.0015
3257.00,0.0014
3256.00,0.0014
3255.00,0.0013
3254.00,0.0013
3253.00,0.0013
3252.00,0.0013
3251.00,0.0013
3250.00,0.0012
3249.00,0.0012
3248.00,0.0012
3247.00,0.0012
3246.00,0.0012
3245.00,0.0012
3244.00,0.0012
3243.00,0.0012
3242.00,0.0012
3241.00,0.0012
3240.00,0.0012
3239.00,0.0012
3238.00,0.0012
3237.00,0.0012
3236.00,0.0013
3235.00,0.0013
3234.00,0.0014
3233.00,0.0013
3232.00,0.0013
3231.00,0.0012
3230.00,0.0011
3229.00,0.0010
3228.00,0.0009
3227.00,0.0009
3226.00,0.0010
3225.00,0.0010
3224.00,0.0010
3223.00,0.0010
3222.00,0.0009
3221.00,0.0009
3220.00,0.0009
3219.00,0.0008
3218.00,0.0008
3217.00,0.0009
3216.00,0.0010
3215.00,0.0010
3214.00,0.0010
3213.00,0.0010
3212.00,0.0009
3211.00,0.0008
3210.00,0.0007
3209.00,0.0007
3208.00,0.0007
3207.00,0.0007
3206.00,0.0007
3205.00,0.0008
3204.00,0.0008
3203.00,0.0008
3202.00,0.0008
3201.00,0.0008
3200.00,0.0007
3199.00,0.0007
3198.00,0.0007
3197.00,0.0007
3196.00,0.0006
3195.00,0.0006
3194.00,0.0006
3193.00,0.0005
3192.00,0.0005
3191.00,0.0004
3190.00,0.0004
3189.00,0.0003
3188.00,0.0003
3187.00,0.0002
3186.00,0.0002
3185.00,0.0002
3184.00,0.0003
3183.00,0.0004
3182.00,0.0004
3181.00,0.0004
3180.00,0.0004
3179.00,0.0003
3178.00,0.0002
3177.00,0.0001
3176.00,0.0000
3175.00,0.0000
3174.00,0.0001
3173.00,0.0001
3172.00,0.0001
3171.00,0.0001
3170.00,0.0000
3169.00,0.0000
3168.00,-0.0000
3167.00,0.0000
3166.00,0.0001
3165.00,0.0002
3164.00,0.0002
3163.00,0.0002
3162.00,0.0001
3161.00,0.0000
3160.00,-0.0001
3159.00,-0.0002
3158.00,-0.0003
3157.00,-0.0003
3156.00,-0.0003
3155.00,-0.0002
3154.00,-0.0001
3153.00,-0.0001
3152.00,-0.0001
3151.00,-0.0001
3150.00,-0.0002
3149.00,-0.0003
3148.00,-0.0003
3147.00,-0.0003
3146.00,-0.0003
3145.00,-0.0003
3144.00,-0.0003
3143.00,-0.0003
3142.00,-0.0003
3141.00,-0.0003
3140.00,-0.0003
3139.00,-0.0003
3138.00,-0.0003
3137.00,-0.0003
3136.00,-0.0003
3135.00,-0.0003
3134.00,-0.0004
3133.00,-0.0005
3132.00,-0.0005
3131.00,-0.0005
3130.00,-0.0005
3129.00,-0.0005
3128.00,-0.0005
3127.00,-0.0005
3126.00,-0.0005
3125.00,-0.0005
3124.00,-0.0005
3123.00,-0.0005
3122.00,-0.0006
3121.00,-0.0006
3120.00,-0.0006
3119.00,-0.0006
3118.00,-0.0006
3117.00,-0.0006
3116.00,-0.0006
3115.00,-0.0007
3114.00,-0.0007
3113.00,-0.0007
3112.00,-0.0007
3111.00,-0.0007
3110.00,-0.0007
3109.00,-0.0007
3108.00,-0.0007
3107.00,-0.0007
3106.00,-0.0007
3105.00,-0.0006
3104.00,-0.0006
3103.00,-0.0007
3102.00,-0.0007
3101.00,-0.0008
3100.00,-0.0008
3099.00,-0.0009
3098.00,-0.0009
3097.00,-0.0009
3096.00,-0.0008
3095.00,-0.0008
3094.00,-0.0007
3093.00,-0.0007
3092.00,-0.0007
3091.00,-0.0008
3090.00,-0.0009
3089.00,-0.0010
3088.00,-0.0011
3087.00,-0.0011
3086.00,-0.0010
3085.00,-0.0009
3084.00,-0.0008
3083.00,-0.0008
3082.00,-0.0008
3081.00,-0.0008
3080.00,-0.0008
3079.00,-0.0009
3078.00,-0.0009
3077.00,-0.0010
3076.00,-0.0010
3075.00,-0.0010
3074.00,-0.0010
3073.00,-0.0010
3072.00,-0.0010
3071.00,-0.0010
3070.00,-0.0009
3069.00,-0.0009
3068.00,-0.0009
3067.00,-0.0009
3066.00,-0.0009
3065.00,-0.0010
3064.00,-0.0011
3063.00,-0.0012
3062.00,-0.0012
3061.00,-0.0012
3060.00,-0.0011
3059.00,-0.0011
3058.00,-0.0011
3057.00,-0.0011
3056.00,-0.0011
3055.00,-0.0012
3054.00,-0.0012
3053.00,-0.0012
3052.00,-0.0012
3051.00,-0.0011
3050.00,-0.0011
3049.00,-0.0011
3048.00,-0.0011
3047.00,-0.0011
3046.00,-0.0011
3045.00,-0.0011
3044.00,-0.0012
3043.00,-0.0012
3042.00,-0.0013
3041.00,-0.0013
3040.00,-0.0014
3039.00,-0.0014
3038.00,-0.0014
3037.00,-0.0014
3036.00,-0.0013
3035.00,-0.0013
3034.00,-0.0012
3033.00,-0.0012
3032.00,-0.0012
3031.00,-0.0013
3030.00,-0.0014
3029.00,-0.0015
3028.00,-0.0015
3027.00,-0.0015
3026.00,-0.0015
3025.00,-0.0015
3024.00,-0.0014
3023.00,-0.0015
3022.00,-0.0015
3021.00,-0.0015
3020.00,-0.0016
3019.00,-0.0017
3018.00,-0.0018
3017.00,-0.0018
3016.00,-0.0018
3015.00,-0.0018
3014.00,-0.0019
3013.00,-0.0020
3012.00,-0.0020
3011.00,-0.0021
3010.00,-0.0022
3009.00,-0.0024
3008.00,-0.0026
3007.00,-0.0027
3006.00,-0.0028
3005.00,-0.0029
3004.00,-0.0030
3003.00,-0.0031
3002.00,-0.0033
3001.00,-0.0035
3000.00,-0.0036
2999.00,-0.0037
2998.00,-0.0039
2997.00,-0.0040
2996.00,-0.0041
2995.00,-0.0042
2994.00,-0.0042
2993.00,-0.0043
2992.00,-0.0043
2991.00,-0.0044
2990.00,-0.0045
2989.00,-0.0046
2988.00,-0.0047
2987.00,-0.0049
2986.00,-0.0052
2985.00,-0.0056
2984.00,-0.0061
2983.00,-0.0064
2982.00,-0.0066
2981.00,-0.0066
2980.00,-0.0064
2979.00,-0.0062
2978.00,-0.0059
2977.00,-0.0057
2976.00,-0.0055
2975.00,-0.0054
2974.00,-0.0055
2973.00,-0.0056
2972.00,-0.0057
2971.00,-0.0056
2970.00,-0.0054
2969.00,-0.0052
2968.00,-0.0050
2967.00,-0.0048
2966.00,-0.0048
2965.00,-0.0047
2964.00,-0.0046
2963.00,-0.0045
2962.00,-0.0043
2961.00,-0.0042
2960.00,-0.0042
2959.00,-0.0041
2958.00,-0.0041
2957.00,-0.0040
2956.00,-0.0039
2955.00,-0.0038
2954.00,-0.0037
2953.00,-0.0036
2952.00,-0.0035
2951.00,-0.0034
2950.00,-0.0034
2949.00,-0.0033
2948.00,-0.0032
2947.00,-0.0032
2946.00,-0.0032
2945.00,-0.0031
2944.00,-0.0030
2943.00,-0.0029
2942.00,-0.0028
2941.00,-0.0028
2940.00,-0.0028
2939.00,-0.0028
2938.00,-0.0028
2937.00,-0.0028
2936.00,-0.0028
2935.00,-0.0028
2934.00,-0.0028
2933.00,-0.0028
2932.00,-0.0028
2931.00,-0.0028
2930.00,-0.0028
2929.00,-0.0028
2928.00,-0.0028
2927.00,-0.0028
2926.00,-0.0028
2925.00,-0.0029
2924.00,-0.0029
2923.00,-0.0030
2922.00,-0.0030
2921.00,-0.0030
2920.00,-0.0031
2919.00,-0.0032
2918.00,-0.0033
2917.00,-0.0034
2916.00,-0.0034
2915.00,-0.0034
2914.00,-0.0033
2913.00,-0.0033
2912.00,-0.0032
2911.00,-0.0031
2910.00,-0.0031
2909.00,-0.0031
2908.00,-0.0031
2907.00,-0.0032
2906.00,-0.0032
2905.00,-0.0032
2904.00,-0.0033
2903.00,-0.0033
2902.00,-0.0033
2901.00,-0.0033
2900.00,-0.0033
2899.00,-0.0034
2898.00,-0.0034
2897.00,-0.0034
2896.00,-0.0034
2895.00,-0.0034
2894.00,-0.0034
2893.00,-0.0034
2892.00,-0.0034
2891.00,-0.0035
2890.00,-0.0035
2889.00,-0.0035
2888.00,-0.0034
2887.00,-0.0034
2886.00,-0.0034
2885.00,-0.0035
2884.00,-0.0035
2883.00,-0.0035
2882.00,-0.0034
2881.00,-0.0034
2880.00,-0.0033
2879.00,-0.0032
2878.00,-0.0031
2877.00,-0.0031
2876.00,-0.0030
2875.00,-0.0030
2874.00,-0.0031
2873.00,-0.0031
2872.00,-0.0031
2871.00,-0.0031
2870.00,-0.0030
2869.00,-0.0030
2868.00,-0.0030
2867.00,-0.0030
2866.00,-0.0030
2865.00,-0.0030
2864.00,-0.0030
2863.00,-0.0030
2862.00,-0.0029
2861.00,-0.0029
2860.00,-0.0028
2859.00,-0.0027
2858.00,-0.0027
2857.00,-0.0026
2856.00,-0.0025
2855.00,-0.0026
2854.00,-0.0026
2853.00,-0.0027
2852.00,-0.0027
2851.00,-0.0027
2850.00,-0.0026
2849.00,-0.0026
2848.00,-0.0026
2847.00,-0.0026
2846.00,-0.0026
2845.00,-0.0026
2844.00,-0.0026
2843.00,-0.0026
2842.00,-0.0026
2841.00,-0.0026
2840.00,-0.0027
2839.00,-0.0027
2838.00,-0.0027
2837.00,-0.0027
2836.00,-0.0026
2835.00,-0.0025
2834.00,-0.0024
2833.00,-0.0025
2832.00,-0.0026
2831.00,-0.0026
2830.00,-0.0027
2829.00,-0.0026
2828.00,-0.0026
2827.00,-0.0025
2826.00,-0.0025
2825.00,-0.0025
2824.00,-0.0025
2823.00,-0.0026
2822.00,-0.0026
2821.00,-0.0026
2820.00,-0.0027
2819.00,-0.0027
2818.00,-0.0027
2817.00,-0.0027
2816.00,-0.0027
2815.00,-0.0027
2814.00,-0.0028
2813.00,-0.0028
2812.00,-0.0028
2811.00,-0.0027
2810.00,-0.0027
2809.00,-0.0027
2808.00,-0.0027
2807.00,-0.0027
2806.00,-0.0027
2805.00,-0.0027
2804.00,-0.0027
2803.00,-0.0027
2802.00,-0.0027
2801.00,-0.0026
2800.00,-0.0026
2799.00,-0.0026
2798.00,-0.0026
2797.00,-0.0026
2796.00,-0.0026
2795.00,-0.0027
2794.00,-0.0027
2793.00,-0.0027
2792.00,-0.0027
2791.00,-0.0026
2790.00,-0.0026
2789.00,-0.0026
2788.00,-0.0026
2787.00,-0.0027
2786.00,-0.0027
2785.00,-0.0027
2784.00,-0.0027
2783.00,-0.0028
2782.00,-0.0028
2781.00,-0.0029
2780.00,-0.0029
2779.00,-0.0029
2778.00,-0.0029
2777.00,-0.0028
2776.00,-0.0028
2775.00,-0.0028
2774.00,-0.0028
2773.00,-0.0028
2772.00,-0.0028
2771.00,-0.0028
2770.00,-0.0029
2769.00,-0.0029
2768.00,-0.0030
2767.00,-0.0030
2766.00,-0.0029
2765.00,-0.0029
2764.00,-0.0029
2763.00,-0.0029
2762.00,-0.0029
2761.00,-0.0029
2760.00,-0.0029
2759.00,-0.0029
2758.00,-0.0029
2757.00,-0.0029
2756.00,-0.0029
2755.00,-0.0029
2754.00,-0.0029
2753.00,-0.0029
2752.00,-0.0029
2751.00,-0.0028
2750.00,-0.0028
2749.00,-0.0028
2748.00,-0.0028
2747.00,-0.0028
2746.00,-0.0028
2745.00,-0.0028
2744.00,-0.0029
2743.00,-0.0029
2742.00,-0.0029
2741.00,-0.0029
2740.00,-0.0029
2739.00,-0.0029
2738.00,-0.0030
2737.00,-0.0030
2736.00,-0.0030
2735.00,-0.0030
2734.00,-0.0030
2733.00,-0.0029
2732.00,-0.0029
2731.00,-0.0029
2730.00,-0.0029
2729.00,-0.0030
2728.00,-0.0030
2727.00,-0.0030
2726.00,-0.0030
2725.00,-0.0030
2724.00,-0.0029
2723.00,-0.0029
2722.00,-0.0030
2721.00,-0.0030
2720.00,-0.0030
2719.00,-0.0030
2718.00,-0.0030
2717.00,-0.0029
2716.00,-0.0029
2715.00,-0.0029
2714.00,-0.0030
2713.00,-0.0030
2712.00,-0.0030
2711.00,-0.0029
2710.00,-0.0030
2709.00,-0.0030
2708.00,-0.0030
2707.00,-0.0030
2706.00,-0.0030
2705.00,-0.0030
2704.00,-0.0030
2703.00,-0.0031
2702.00,-0.0030
2701.00,-0.0030
2700.00,-0.0030
2699.00,-0.0030
2698.00,-0.0030
2697.00,-0.0031
2696.00,-0.0031
2695.00,-0.0031
2694.00,-0.0030
2693.00,-0.0030
2692.00,-0.0030
2691.00,-0.0030
2690.00,-0.0030
2689.00,-0.0030
2688.00,-0.0030
2687.00,-0.0030
2686.00,-0.0030
2685.00,-0.0030
2684.00,-0.0030
2683.00,-0.0030
2682.00,-0.0030
2681.00,-0.0031
2680.00,-0.0031
2679.00,-0.0031
2678.00,-0.0032
2677.00,-0.0032
2676.00,-0.0032
2675.00,-0.0032
2674.00,-0.0032
2673.00,-0.0032
2672.00,-0.0031
2671.00,-0.0032
2670.00,-0.0032
2669.00,-0.0032
2668.00,-0.0032
2667.00,-0.0032
2666.00,-0.0031
2665.00,-0.0031
2664.00,-0.0031
2663.00,-0.0030
2662.00,-0.0030
2661.00,-0.0029
2660.00,-0.0029
2659.00,-0.0029
2658.00,-0.0029
2657.00,-0.0028
2656.00,-0.0028
2655.00,-0.0029
2654.00,-0.0029
2653.00,-0.0028
2652.00,-0.0028
2651.00,-0.0028
2650.00,-0.0028
2649.00,-0.0028
2648.00,-0.0029
2647.00,-0.0029
2646.00,-0.0030
2645.00,-0.0030
2644.00,-0.0029
2643.00,-0.0029
2642.00,-0.0029
2641.00,-0.0029
2640.00,-0.0029
2639.00,-0.0029
2638.00,-0.0029
2637.00,-0.0029
2636.00,-0.0030
2635.00,-0.0030
2634.00,-0.0029
2633.00,-0.0029
2632.00,-0.0029
2631.00,-0.0029
2630.00,-0.0030
2629.00,-0.0031
2628.00,-0.0032
2627.00,-0.0032
2626.00,-0.0032
2625.00,-0.0031
2624.00,-0.0030
2623.00,-0.0030
2622.00,-0.0029
2621.00,-0.0029
2620.00,-0.0029
2619.00,-0.0029
2618.00,-0.0030
2617.00,-0.0030
2616.00,-0.0030
2615.00,-0.0030
2614.00,-0.0031
2613.00,-0.0030
2612.00,-0.0030
2611.00,-0.0029
2610.00,-0.0030
2609.00,-0.0030
2608.00,-0.0031
2607.00,-0.0031
2606.00,-0.0031
2605.00,-0.0030
2604.00,-0.0030
2603.00,-0.0029
2602.00,-0.0029
2601.00,-0.0030
2600.00,-0.0030
2599.00,-0.0031
2598.00,-0.0031
2597.00,-0.0032
2596.00,-0.0032
2595.00,-0.0032
2594.00,-0.0032
2593.00,-0.0031
2592.00,-0.0031
2591.00,-0.0031
2590.00,-0.0031
2589.00,-0.0031
2588.00,-0.0031
2587.00,-0.0032
2586.00,-0.0032
2585.00,-0.0033
2584.00,-0.0033
2583.00,-0.0033
2582.00,-0.0033
2581.00,-0.0032
2580.00,-0.0031
2579.00,-0.0031
2578.00,-0.0031
2577.00,-0.0032
2576.00,-0.0033
2575.00,-0.0034
2574.00,-0.0034
2573.00,-0.0033
2572.00,-0.0033
2571.00,-0.0033
2570.00,-0.0033
2569.00,-0.0033
2568.00,-0.0033
2567.00,-0.0032
2566.00,-0.0031
2565.00,-0.0030
2564.00,-0.0030
2563.00,-0.0030
2562.00,-0.0030
2561.00,-0.0030
2560.00,-0.0031
2559.00,-0.0031
2558.00,-0.0031
2557.00,-0.0031
2556.00,-0.0031
2555.00,-0.0031
2554.00,-0.0031
2553.00,-0.0032
2552.00,-0.0033
2551.00,-0.0034
2550.00,-0.0034
2549.00,-0.0035
2548.00,-0.0036
2547.00,-0.0036
2546.00,-0.0035
2545.00,-0.0035
2544.00,-0.0034
2543.00,-0.0034
2542.00,-0.0034
2541.00,-0.0035
2540.00,-0.0036
2539.00,-0.0037
2538.00,-0.0038
2537.00,-0.0038
2536.00,-0.0037
2535.00,-0.0037
2534.00,-0.0036
2533.00,-0.0035
2532.00,-0.0035
2531.00,-0.0035
2530.00,-0.0036
2529.00,-0.0036
2528.00,-0.0036
2527.00,-0.0036
2526.00,-0.0036
2525.00,-0.0037
2524.00,-0.0037
2523.00,-0.0037
2522.00,-0.0037
2521.00,-0.0036
2520.00,-0.0036
2519.00,-0.0036
2518.00,-0.0035
2517.00,-0.0034
2516.00,-0.0033
2515.00,-0.0033
2514.00,-0.0034
2513.00,-0.0035
2512.00,-0.0036
2511.00,-0.0036
2510.00,-0.0035
2509.00,-0.0034
2508.00,-0.0034
2507.00,-0.0034
2506.00,-0.0034
2505.00,-0.0034
2504.00,-0.0035
2503.00,-0.0035
2502.00,-0.0035
2501.00,-0.0034
2500.00,-0.0034
2499.00,-0.0034
2498.00,-0.0034
2497.00,-0.0034
2496.00,-0.0034
2495.00,-0.0033
2494.00,-0.0033
2493.00,-0.0033
2492.00,-0.0033
2491.00,-0.0033
2490.00,-0.0033
2489.00,-0.0033
2488.00,-0.0033
2487.00,-0.0033
2486.00,-0.0033
2485.00,-0.0034
2484.00,-0.0035
2483.00,-0.0035
2482.00,-0.0035
2481.00,-0.0035
2480.00,-0.0034
2479.00,-0.0033
2478.00,-0.0034
2477.00,-0.0034
2476.00,-0.0035
2475.00,-0.0035
2474.00,-0.0035
2473.00,-0.0034
2472.00,-0.0034
2471.00,-0.0034
2470.00,-0.0034
2469.00,-0.0034
2468.00,-0.0035
2467.00,-0.0035
2466.00,-0.0035
2465.00,-0.0035
2464.00,-0.0035
2463.00,-0.0035
2462.00,-0.0035
2461.00,-0.0035
2460.00,-0.0035
2459.00,-0.0034
2458.00,-0.0034
2457.00,-0.0034
2456.00,-0.0034
2455.00,-0.0034
2454.00,-0.0033
2453.00,-0.0032
2452.00,-0.0031
2451.00,-0.0031
2450.00,-0.0031
2449.00,-0.0032
2448.00,-0.0033
2447.00,-0.0033
2446.00,-0.0033
2445.00,-0.0034
2444.00,-0.0035
2443.00,-0.0035
2442.00,-0.0035
2441.00,-0.0035
2440.00,-0.0035
2439.00,-0.0034
2438.00,-0.0034
2437.00,-0.0035
2436.00,-0.0035
2435.00,-0.0035
2434.00,-0.0036
2433.00,-0.0036
2432.00,-0.0036
2431.00,-0.0036
2430.00,-0.0036
2429.00,-0.0036
2428.00,-0.0036
2427.00,-0.0036
2426.00,-0.0036
2425.00,-0.0035
2424.00,-0.0035
2423.00,-0.0035
2422.00,-0.0035
2421.00,-0.0035
2420.00,-0.0035
2419.00,-0.0035
2418.00,-0.0036
2417.00,-0.0036
2416.00,-0.0036
2415.00,-0.0037
2414.00,-0.0036
2413.00,-0.0036
2412.00,-0.0036
2411.00,-0.0036
2410.00,-0.0035
2409.00,-0.0035
2408.00,-0.0035
2407.00,-0.0036
2406.00,-0.0036
2405.00,-0.0036
2404.00,-0.0036
2403.00,-0.0037
2402.00,-0.0037
2401.00,-0.0038
2400.00,-0.0038
2399.00,-0.0037
2398.00,-0.0037
2397.00,-0.0037
2396.00,-0.0038
2395.00,-0.0038
2394.00,-0.0038
2393.00,-0.0038
2392.00,-0.0038
2391.00,-0.0038
2390.00,-0.0038
2389.00,-0.0038
2388.00,-0.0038
2387.00,-0.0038
2386.00,-0.0038
2385.00,-0.0039
2384.00,-0.0040
2383.00,-0.0040
2382.00,-0.0040
2381.00,-0.0038
2380.00,-0.0037
2379.00,-0.0035
2378.00,-0.0035
2377.00,-0.0035
2376.00,-0.0036
2375.00,-0.0037
2374.00,-0.0038
2373.00,-0.0039
2372.00,-0.0040
2371.00,-0.0042
2370.00,-0.0044
2369.00,-0.0046
2368.00,-0.0047
2367.00,-0.0045
2366.00,-0.0041
2365.00,-0.0038
2364.00,-0.0038
2363.00,-0.0040
2362.00,-0.0042
2361.00,-0.0041
2360.00,-0.0040
2359.00,-0.0039
2358.00,-0.0038
2357.00,-0.0038
2356.00,-0.0038
2355.00,-0.0039
2354.00,-0.0040
2353.00,-0.0040
2352.00,-0.0039
2351.00,-0.0039
2350.00,-0.0039
2349.00,-0.0039
2348.00,-0.0039
2347.00,-0.0038
2346.00,-0.0039
2345.00,-0.0040
2344.00,-0.0040
2343.00,-0.0038
2342.00,-0.0036
2341.00,-0.0034
2340.00,-0.0033
2339.00,-0.0034
2338.00,-0.0036
2337.00,-0.0038
2336.00,-0.0039
2335.00,-0.0038
2334.00,-0.0038
2333.00,-0.0037
2332.00,-0.0038
2331.00,-0.0039
2330.00,-0.0039
2329.00,-0.0039
2328.00,-0.0037
2327.00,-0.0035
2326.00,-0.0033
2325.00,-0.0033
2324.00,-0.0034
2323.00,-0.0035
2322.00,-0.0036
2321.00,-0.0036
2320.00,-0.0036
2319.00,-0.0037
2318.00,-0.0038
2317.00,-0.0039
2316.00,-0.0038
2315.00,-0.0038
2314.00,-0.0037
2313.00,-0.0037
2312.00,-0.0036
2311.00,-0.0036
2310.00,-0.0035
2309.00,-0.0034
2308.00,-0.0034
2307.00,-0.0035
2306.00,-0.0035
2305.00,-0.0035
2304.00,-0.0036
2303.00,-0.0037
2302.00,-0.0038
2301.00,-0.0038
2300.00,-0.0037
2299.00,-0.0036
2298.00,-0.0036
2297.00,-0.0036
2296.00,-0.0036
2295.00,-0.0035
2294.00,-0.0035
2293.00,-0.0033
2292.00,-0.0031
2291.00,-0.0030
2290.00,-0.0030
2289.00,-0.0030
2288.00,-0.0030
2287.00,-0.0029
2286.00,-0.0028
2285.00,-0.0027
2284.00,-0.0026
2283.00,-0.0026
2282.00,-0.0027
2281.00,-0.0028
2280.00,-0.0029
2279.00,-0.0029
2278.00,-0.0029
2277.00,-0.0029
2276.00,-0.0030
2275.00,-0.0031
2274.00,-0.0032
2273.00,-0.0034
2272.00,-0.0034
2271.00,-0.0034
2270.00,-0.0034
2269.00,-0.0034
2268.00,-0.0034
2267.00,-0.0034
2266.00,-0.0034
2265.00,-0.0034
2264.00,-0.0033
2263.00,-0.0032
2262.00,-0.0032
2261.00,-0.0031
2260.00,-0.0031
2259.00,-0.0031
2258.00,-0.0034
2257.00,-0.0036
2256.00,-0.0039
2255.00,-0.0039
2254.00,-0.0038
2253.00,-0.0037
2252.00,-0.0037
2251.00,-0.0036
2250.00,-0.0035
2249.00,-0.0035
2248.00,-0.0036
2247.00,-0.0036
2246.00,-0.0035
2245.00,-0.0034
2244.00,-0.0034
2243.00,-0.0034
2242.00,-0.0035
2241.00,-0.0036
2240.00,-0.0037
2239.00,-0.0037
2238.00,-0.0037
2237.00,-0.0036
2236.00,-0.0036
2235.00,-0.0036
2234.00,-0.0035
2233.00,-0.0034
2232.00,-0.0034
2231.00,-0.0036
2230.00,-0.0038
2229.00,-0.0038
2228.00,-0.0038
2227.00,-0.0037
2226.00,-0.0036
2225.00,-0.0036
2224.00,-0.0037
2223.00,-0.0039
2222.00,-0.0041
2221.00,-0.0042
2220.00,-0.0041
2219.00,-0.0040
2218.00,-0.0040
2217.00,-0.0039
2216.00,-0.0037
2215.00,-0.0036
2214.00,-0.0034
2213.00,-0.0034
2212.00,-0.0036
2211.00,-0.0037
2210.00,-0.0038
2209.00,-0.0037
2208.00,-0.0036
2207.00,-0.0036
2206.00,-0.0035
2205.00,-0.0035
2204.00,-0.0036
2203.00,-0.0036
2202.00,-0.0036
2201.00,-0.0036
2200.00,-0.0036
2199.00,-0.0036
2198.00,-0.0036
2197.00,-0.0036
2196.00,-0.0036
2195.00,-0.0037
2194.00,-0.0038
2193.00,-0.0039
2192.00,-0.0039
2191.00,-0.0040
2190.00,-0.0042
2189.00,-0.0043
2188.00,-0.0042
2187.00,-0.0038
2186.00,-0.0034
2185.00,-0.0033
2184.00,-0.0035
2183.00,-0.0038
2182.00,-0.0041
2181.00,-0.0041
2180.00,-0.0039
2179.00,-0.0037
2178.00,-0.0036
2177.00,-0.0036
2176.00,-0.0037
2175.00,-0.0037
2174.00,-0.0037
2173.00,-0.0038
2172.00,-0.0037
2171.00,-0.0035
2170.00,-0.0032
2169.00,-0.0029
2168.00,-0.0028
2167.00,-0.0028
2166.00,-0.0028
2165.00,-0.0026
2164.00,-0.0024
2163.00,-0.0023
2162.00,-0.0025
2161.00,-0.0030
2160.00,-0.0039
2159.00,-0.0048
2158.00,-0.0054
2157.00,-0.0055
2156.00,-0.0054
2155.00,-0.0052
2154.00,-0.0050
2153.00,-0.0047
2152.00,-0.0046
2151.00,-0.0047
2150.00,-0.0050
2149.00,-0.0051
2148.00,-0.0051
2147.00,-0.0049
2146.00,-0.0047
2145.00,-0.0046
2144.00,-0.0044
2143.00,-0.0043
2142.00,-0.0041
2141.00,-0.0040
2140.00,-0.0039
2139.00,-0.0041
2138.00,-0.0044
2137.00,-0.0047
2136.00,-0.0050
2135.00,-0.0051
2134.00,-0.0051
2133.00,-0.0049
2132.00,-0.0047
2131.00,-0.0045
2130.00,-0.0044
2129.00,-0.0042
2128.00,-0.0040
2127.00,-0.0039
2126.00,-0.0039
2125.00,-0.0039
2124.00,-0.0040
2123.00,-0.0040
2122.00,-0.0040
2121.00,-0.0041
2120.00,-0.0041
2119.00,-0.0041
2118.00,-0.0040
2117.00,-0.0039
2116.00,-0.0039
2115.00,-0.0040
2114.00,-0.0041
2113.00,-0.0042
2112.00,-0.0041
2111.00,-0.0039
2110.00,-0.0037
2109.00,-0.0035
2108.00,-0.0034
2107.00,-0.0033
2106.00,-0.0032
2105.00,-0.0033
2104.00,-0.0034
2103.00,-0.0035
2102.00,-0.0035
2101.00,-0.0036
2100.00,-0.0038
2099.00,-0.0040
2098.00,-0.0041
2097.00,-0.0041
2096.00,-0.0040
2095.00,-0.0039
2094.00,-0.0038
2093.00,-0.0037
2092.00,-0.0036
2091.00,-0.0037
2090.00,-0.0037
2089.00,-0.0038
2088.00,-0.0038
2087.00,-0.0037
2086.00,-0.0036
2085.00,-0.0035
2084.00,-0.0034
2083.00,-0.0034
2082.00,-0.0035
2081.00,-0.0036
2080.00,-0.0036
2079.00,-0.0035
2078.00,-0.0034
2077.00,-0.0033
2076.00,-0.0033
2075.00,-0.0032
2074.00,-0.0032
2073.00,-0.0033
2072.00,-0.0033
2071.00,-0.0033
2070.00,-0.0033
2069.00,-0.0035
2068.00,-0.0037
2067.00,-0.0039
2066.00,-0.0039
2065.00,-0.0038
2064.00,-0.0037
2063.00,-0.0035
2062.00,-0.0034
2061.00,-0.0035
2060.00,-0.0036
2059.00,-0.0037
2058.00,-0.0037
2057.00,-0.0036
2056.00,-0.0035
2055.00,-0.0034
2054.00,-0.0034
2053.00,-0.0032
2052.00,-0.0030
2051.00,-0.0030
2050.00,-0.0033
2049.00,-0.0036
2048.00,-0.0037
2047.00,-0.0037
2046.00,-0.0036
2045.00,-0.0034
2044.00,-0.0032
2043.00,-0.0030
2042.00,-0.0029
2041.00,-0.0030
2040.00,-0.0032
2039.00,-0.0033
2038.00,-0.0032
2037.00,-0.0029
2036.00,-0.0027
2035.00,-0.0028
2034.00,-0.0031
2033.00,-0.0032
2032.00,-0.0031
2031.00,-0.0028
2030.00,-0.0028
2029.00,-0.0030
2028.00,-0.0034
2027.00,-0.0036
2026.00,-0.0037
2025.00,-0.0038
2024.00,-0.0039
2023.00,-0.0040
2022.00,-0.0041
2021.00,-0.0041
2020.00,-0.0042
2019.00,-0.0044
2018.00,-0.0047
2017.00,-0.0048
2016.00,-0.0047
2015.00,-0.0044
2014.00,-0.0041
2013.00,-0.0040
2012.00,-0.0040
2011.00,-0.0039
2010.00,-0.0038
2009.00,-0.0037
2008.00,-0.0037
2007.00,-0.0038
2006.00,-0.0041
2005.00,-0.0043
2004.00,-0.0043
2003.00,-0.0040
2002.00,-0.0036
2001.00,-0.0031
2000.00,-0.0030
1999.00,-0.0031
1998.00,-0.0033
1997.00,-0.0033
1996.00,-0.0031
1995.00,-0.0029
1994.00,-0.0027
1993.00,-0.0026
1992.00,-0.0026
1991.00,-0.0028
1990.00,-0.0031
1989.00,-0.0033
1988.00,-0.0034
1987.00,-0.0034
1986.00,-0.0033
1985.00,-0.0032
1984.00,-0.0031
1983.00,-0.0029
1982.00,-0.0028
1981.00,-0.0028
1980.00,-0.0030
1979.00,-0.0035
1978.00,-0.0041
1977.00,-0.0045
1976.00,-0.0046
1975.00,-0.0042
1974.00,-0.0038
1973.00,-0.0036
1972.00,-0.0038
1971.00,-0.0040
1970.00,-0.0041
1969.00,-0.0040
1968.00,-0.0038
1967.00,-0.0038
1966.00,-0.0039
1965.00,-0.0040
1964.00,-0.0040
1963.00,-0.0038
1962.00,-0.0037
1961.00,-0.0036
1960.00,-0.0036
1959.00,-0.0035
1958.00,-0.0036
1957.00,-0.0037
1956.00,-0.0038
1955.00,-0.0038
1954.00,-0.0037
1953.00,-0.0036
1952.00,-0.0036
1951.00,-0.0037
1950.00,-0.0038
1949.00,-0.0039
1948.00,-0.0039
1947.00,-0.0038
1946.00,-0.0038
1945.00,-0.0039
1944.00,-0.0040
1943.00,-0.0042
1942.00,-0.0042
1941.00,-0.0042
1940.00,-0.0042
1939.00,-0.0043
1938.00,-0.0044
1937.00,-0.0043
1936.00,-0.0042
1935.00,-0.0042
1934.00,-0.0042
1933.00,-0.0042
1932.00,-0.0041
1931.00,-0.0040
1930.00,-0.0037
1929.00,-0.0035
1928.00,-0.0034
1927.00,-0.0033
1926.00,-0.0033
1925.00,-0.0033
1924.00,-0.0033
1923.00,-0.0034
1922.00,-0.0034
1921.00,-0.0034
1920.00,-0.0035
1919.00,-0.0037
1918.00,-0.0037
1917.00,-0.0038
1916.00,-0.0037
1915.00,-0.0037
1914.00,-0.0037
1913.00,-0.0037
1912.00,-0.0036
1911.00,-0.0035
1910.00,-0.0035
1909.00,-0.0036
1908.00,-0.0037
1907.00,-0.0038
1906.00,-0.0037
1905.00,-0.0036
1904.00,-0.0036
1903.00,-0.0036
1902.00,-0.0036
1901.00,-0.0036
1900.00,-0.0036
1899.00,-0.0035
1898.00,-0.0033
1897.00,-0.0033
1896.00,-0.0035
1895.00,-0.0036
1894.00,-0.0037
1893.00,-0.0036
1892.00,-0.0036
1891.00,-0.0035
1890.00,-0.0035
1889.00,-0.0035
1888.00,-0.0035
1887.00,-0.0035
1886.00,-0.0035
1885.00,-0.0035
1884.00,-0.0034
1883.00,-0.0034
1882.00,-0.0034
1881.00,-0.0033
1880.00,-0.0033
1879.00,-0.0033
1878.00,-0.0034
1877.00,-0.0035
1876.00,-0.0035
1875.00,-0.0035
1874.00,-0.0033
1873.00,-0.0032
1872.00,-0.0031
1871.00,-0.0031
1870.00,-0.0031
1869.00,-0.0032
1868.00,-0.0033
1867.00,-0.0034
1866.00,-0.0034
1865.00,-0.0034
1864.00,-0.0034
1863.00,-0.0035
1862.00,-0.0036
1861.00,-0.0036
1860.00,-0.0037
1859.00,-0.0036
1858.00,-0.0035
1857.00,-0.0034
1856.00,-0.0033
1855.00,-0.0033
1854.00,-0.0033
1853.00,-0.0034
1852.00,-0.0034
1851.00,-0.0034
1850.00,-0.0033
1849.00,-0.0032
1848.00,-0.0032
1847.00,-0.0032
1846.00,-0.0032
1845.00,-0.0032
1844.00,-0.0032
1843.00,-0.0033
1842.00,-0.0033
1841.00,-0.0033
1840.00,-0.0033
1839.00,-0.0033
1838.00,-0.0033
1837.00,-0.0033
1836.00,-0.0033
1835.00,-0.0033
1834.00,-0.0033
1833.00,-0.0032
1832.00,-0.0031
1831.00,-0.0031
1830.00,-0.0031
1829.00,-0.0031
1828.00,-0.0032
1827.00,-0.0032
1826.00,-0.0033
1825.00,-0.0033
1824.00,-0.0033
1823.00,-0.0034
1822.00,-0.0033
1821.00,-0.0033
1820.00,-0.0033
1819.00,-0.0034
1818.00,-0.0035
1817.00,-0.0036
1816.00,-0.0036
1815.00,-0.0036
1814.00,-0.0035
1813.00,-0.0035
1812.00,-0.0034
1811.00,-0.0034
1810.00,-0.0034
1809.00,-0.0033
1808.00,-0.0033
1807.00,-0.0033
1806.00,-0.0032
1805.00,-0.0032
1804.00,-0.0032
1803.00,-0.0032
1802.00,-0.0032
1801.00,-0.0032
1800.00,-0.0032
1799.00,-0.0032
1798.00,-0.0032
1797.00,-0.0031
1796.00,-0.0031
1795.00,-0.0031
1794.00,-0.0031
1793.00,-0.0031
1792.00,-0.0030
1791.00,-0.0031
1790.00,-0.0031
1789.00,-0.0032
1788.00,-0.0032
1787.00,-0.0031
1786.00,-0.0031
1785.00,-0.0031
1784.00,-0.0031
1783.00,-0.0031
1782.00,-0.0031
1781.00,-0.0031
1780.00,-0.0032
1779.00,-0.0032
1778.00,-0.0032
1777.00,-0.0031
1776.00,-0.0031
1775.00,-0.0031
1774.00,-0.0031
1773.00,-0.0031
1772.00,-0.0032
1771.00,-0.0033
1770.00,-0.0033
1769.00,-0.0033
1768.00,-0.0032
1767.00,-0.0032
1766.00,-0.0032
1765.00,-0.0032
1764.00,-0.0032
1763.00,-0.0032
1762.00,-0.0033
1761.00,-0.0034
1760.00,-0.0034
1759.00,-0.0034
1758.00,-0.0034
1757.00,-0.0034
1756.00,-0.0034
1755.00,-0.0033
1754.00,-0.0033
1753.00,-0.0033
1752.00,-0.0034
1751.00,-0.0035
1750.00,-0.0036
1749.00,-0.0035
1748.00,-0.0035
1747.00,-0.0035
1746.00,-0.0035
1745.00,-0.0034
1744.00,-0.0034
1743.00,-0.0034
1742.00,-0.0034
1741.00,-0.0034
1740.00,-0.0034
1739.00,-0.0034
1738.00,-0.0034
1737.00,-0.0034
1736.00,-0.0033
1735.00,-0.0033
1734.00,-0.0034
1733.00,-0.0035
1732.00,-0.0036
1731.00,-0.0037
1730.00,-0.0037
1729.00,-0.0037
1728.00,-0.0037
1727.00,-0.0037
1726.00,-0.0037
1725.00,-0.0036
1724.00,-0.0036
1723.00,-0.0036
1722.00,-0.0036
1721.00,-0.0036
1720.00,-0.0037
1719.00,-0.0038
1718.00,-0.0038
1717.00,-0.0037
1716.00,-0.0036
1715.00,-0.0035
1714.00,-0.0035
1713.00,-0.0034
1712.00,-0.0034
1711.00,-0.0034
1710.00,-0.0033
1709.00,-0.0033
1708.00,-0.0033
1707.00,-0.0033
1706.00,-0.0034
1705.00,-0.0033
1704.00,-0.0033
1703.00,-0.0031
1702.00,-0.0031
1701.00,-0.0030
1700.00,-0.0030
1699.00,-0.0030
1698.00,-0.0029
1697.00,-0.0029
1696.00,-0.0029
1695.00,-0.0029
1694.00,-0.0029
1693.00,-0.0029
1692.00,-0.0028
1691.00,-0.0027
1690.00,-0.0026
1689.00,-0.0026
1688.00,-0.0026
1687.00,-0.0026
1686.00,-0.0027
1685.00,-0.0028
1684.00,-0.0028
1683.00,-0.0027
1682.00,-0.0027
1681.00,-0.0027
1680.00,-0.0027
1679.00,-0.0026
1678.00,-0.0025
1677.00,-0.0024
1676.00,-0.0022
1675.00,-0.0021
1674.00,-0.0021
1673.00,-0.0021
1672.00,-0.0022
1671.00,-0.0022
1670.00,-0.0021
1669.00,-0.0021
1668.00,-0.0022
1667.00,-0.0022
1666.00,-0.0022
1665.00,-0.0021
1664.00,-0.0021
1663.00,-0.0021
1662.00,-0.0021
1661.00,-0.0020
1660.00,-0.0019
1659.00,-0.0018
1658.00,-0.0017
1657.00,-0.0017
1656.00,-0.0018
1655.00,-0.0020
1654.00,-0.0022
1653.00,-0.0021
1652.00,-0.0020
1651.00,-0.0019
1650.00,-0.0019
1649.00,-0.0019
1648.00,-0.0018
1647.00,-0.0017
1646.00,-0.0017
1645.00,-0.0016
1644.00,-0.0016
1643.00,-0.0017
1642.00,-0.0017
1641.00,-0.0017
1640.00,-0.0018
1639.00,-0.0018
1638.00,-0.0018
1637.00,-0.0018
1636.00,-0.0017
1635.00,-0.0017
1634.00,-0.0018
1633.00,-0.0020
1632.00,-0.0021
1631.00,-0.0022
1630.00,-0.0023
1629.00,-0.0023
1628.00,-0.0023
1627.00,-0.0023
1626.00,-0.0023
1625.00,-0.0023
1624.00,-0.0023
1623.00,-0.0023
1622.00,-0.0025
1621.00,-0.0026
1620.00,-0.0026
1619.00,-0.0026
1618.00,-0.0027
1617.00,-0.0028
1616.00,-0.0029
1615.00,-0.0030
1614.00,-0.0031
1613.00,-0.0032
1612.00,-0.0032
1611.00,-0.0033
1610.00,-0.0033
1609.00,-0.0034
1608.00,-0.0035
1607.00,-0.0036
1606.00,-0.0036
1605.00,-0.0036
1604.00,-0.0037
1603.00,-0.0038
1602.00,-0.0041
1601.00,-0.0043
1600.00,-0.0044
1599.00,-0.0045
1598.00,-0.0045
1597.00,-0.0044
1596.00,-0.0044
1595.00,-0.0044
1594.00,-0.0044
1593.00,-0.0045
1592.00,-0.0046
1591.00,-0.0047
1590.00,-0.0048
1589.00,-0.0049
1588.00,-0.0048
1587.00,-0.0048
1586.00,-0.0048
1585.00,-0.0049
1584.00,-0.0050
1583.00,-0.0050
1582.00,-0.0050
1581.00,-0.0051
1580.00,-0.0051
1579.00,-0.0050
1578.00,-0.0049
1577.00,-0.0049
1576.00,-0.0050
1575.00,-0.0052
1574.00,-0.0053
1573.00,-0.0054
1572.00,-0.0054
1571.00,-0.0054
1570.00,-0.0054
1569.00,-0.0054
1568.00,-0.0054
1567.00,-0.0054
1566.00,-0.0055
1565.00,-0.0055
1564.00,-0.0056
1563.00,-0.0056
1562.00,-0.0056
1561.00,-0.0056
1560.00,-0.0056
1559.00,-0.0055
1558.00,-0.0055
1557.00,-0.0056
1556.00,-0.0056
1555.00,-0.0056
1554.00,-0.0055
1553.00,-0.0055
1552.00,-0.0055
1551.00,-0.0056
1550.00,-0.0056
1549.00,-0.0056
1548.00,-0.0056
1547.00,-0.0056
1546.00,-0.0056
1545.00,-0.0055
1544.00,-0.0055
1543.00,-0.0055
1542.00,-0.0055
1541.00,-0.0055
1540.00,-0.0057
1539.00,-0.0058
1538.00,-0.0058
1537.00,-0.0057
1536.00,-0.0056
1535.00,-0.0056
1534.00,-0.0056
1533.00,-0.0056
1532.00,-0.0057
1531.00,-0.0056
1530.00,-0.0056
1529.00,-0.0055
1528.00,-0.0054
1527.00,-0.0054
1526.00,-0.0054
1525.00,-0.0055
1524.00,-0.0055
1523.00,-0.0055
1522.00,-0.0055
1521.00,-0.0055
1520.00,-0.0055
1519.00,-0.0054
1518.00,-0.0054
1517.00,-0.0054
1516.00,-0.0055
1515.00,-0.0055
1514.00,-0.0054
1513.00,-0.0054
1512.00,-0.0055
1511.00,-0.0056
1510.00,-0.0056
1509.00,-0.0056
1508.00,-0.0054
1507.00,-0.0054
1506.00,-0.0054
1505.00,-0.0053
1504.00,-0.0053
1503.00,-0.0054
1502.00,-0.0054
1501.00,-0.0054
1500.00,-0.0054
1499.00,-0.0053
1498.00,-0.0052
1497.00,-0.0051
1496.00,-0.0051
1495.00,-0.0052
1494.00,-0.0054
1493.00,-0.0055
1492.00,-0.0056
1491.00,-0.0057
1490.00,-0.0057
1489.00,-0.0056
1488.00,-0.0056
1487.00,-0.0056
1486.00,-0.0056
1485.00,-0.0056
1484.00,-0.0057
1483.00,-0.0057
1482.00,-0.0057
1481.00,-0.0056
1480.00,-0.0056
1479.00,-0.0057
1478.00,-0.0057
1477.00,-0.0057
1476.00,-0.0057
1475.00,-0.0057
1474.00,-0.0057
1473.00,-0.0056
1472.00,-0.0056
1471.00,-0.0056
1470.00,-0.0055
1469.00,-0.0054
1468.00,-0.0053
1467.00,-0.0054
1466.00,-0.0055
1465.00,-0.0056
1464.00,-0.0057
1463.00,-0.0058
1462.00,-0.0058
1461.00,-0.0059
1460.00,-0.0059
1459.00,-0.0058
1458.00,-0.0057
1457.00,-0.0056
1456.00,-0.0057
1455.00,-0.0059
1454.00,-0.0059
1453.00,-0.0059
1452.00,-0.0058
1451.00,-0.0057
1450.00,-0.0057
1449.00,-0.0056
1448.00,-0.0056
1447.00,-0.0055
1446.00,-0.0055
1445.00,-0.0055
1444.00,-0.0055
1443.00,-0.0056
1442.00,-0.0056
1441.00,-0.0056
1440.00,-0.0056
1439.00,-0.0056
1438.00,-0.0055
1437.00,-0.0055
1436.00,-0.0055
1435.00,-0.0055
1434.00,-0.0056
1433.00,-0.0056
1432.00,-0.0056
1431.00,-0.0056
1430.00,-0.0057
1429.00,-0.0058
1428.00,-0.0058
1427.00,-0.0058
1426.00,-0.0057
1425.00,-0.0057
1424.00,-0.0057
1423.00,-0.0057
1422.00,-0.0057
1421.00,-0.0057
1420.00,-0.0057
1419.00,-0.0057
1418.00,-0.0057
1417.00,-0.0057
1416.00,-0.0056
1415.00,-0.0057
1414.00,-0.0058
1413.00,-0.0059
1412.00,-0.0060
1411.00,-0.0061
1410.00,-0.0062
1409.00,-0.0062
1408.00,-0.0062
1407.00,-0.0063
1406.00,-0.0064
1405.00,-0.0066
1404.00,-0.0067
1403.00,-0.0068
1402.00,-0.0069
1401.00,-0.0070
1400.00,-0.0071
1399.00,-0.0072
1398.00,-0.0073
1397.00,-0.0074
1396.00,-0.0074
1395.00,-0.0075
1394.00,-0.0076
1393.00,-0.0077
1392.00,-0.0077
1391.00,-0.0077
1390.00,-0.0077
1389.00,-0.0077
1388.00,-0.0077
1387.00,-0.0077
1386.00,-0.0078
1385.00,-0.0079
1384.00,-0.0080
1383.00,-0.0080
1382.00,-0.0080
1381.00,-0.0080
1380.00,-0.0079
1379.00,-0.0079
1378.00,-0.0078
1377.00,-0.0077
1376.00,-0.0077
1375.00,-0.0077
1374.00,-0.0076
1373.00,-0.0076
1372.00,-0.0075
1371.00,-0.0075
1370.00,-0.0074
1369.00,-0.0074
1368.00,-0.0074
1367.00,-0.0073
1366.00,-0.0073
1365.00,-0.0074
1364.00,-0.0074
1363.00,-0.0074
1362.00,-0.0074
1361.00,-0.0073
1360.00,-0.0072
1359.00,-0.0071
1358.00,-0.0071
1357.00,-0.0070
1356.00,-0.0069
1355.00,-0.0068
1354.00,-0.0068
1353.00,-0.0068
1352.00,-0.0069
1351.00,-0.0069
1350.00,-0.0070
1349.00,-0.0070
1348.00,-0.0070
1347.00,-0.0069
1346.00,-0.0069
1345.00,-0.0069
1344.00,-0.0070
1343.00,-0.0070
1342.00,-0.0070
1341.00,-0.0069
1340.00,-0.0069
1339.00,-0.0068
1338.00,-0.0068
1337.00,-0.0068
1336.00,-0.0068
1335.00,-0.0068
1334.00,-0.0068
1333.00,-0.0068
1332.00,-0.0068
1331.00,-0.0068
1330.00,-0.0068
1329.00,-0.0068
1328.00,-0.0068
1327.00,-0.0068
1326.00,-0.0068
1325.00,-0.0068
1324.00,-0.0067
1323.00,-0.0066
1322.00,-0.0065
1321.00,-0.0064
1320.00,-0.0064
1319.00,-0.0064
1318.00,-0.0065
1317.00,-0.0067
1316.00,-0.0068
1315.00,-0.0068
1314.00,-0.0067
1313.00,-0.0066
1312.00,-0.0065
1311.00,-0.0064
1310.00,-0.0063
1309.00,-0.0063
1308.00,-0.0064
1307.00,-0.0064
1306.00,-0.0065
1305.00,-0.0065
1304.00,-0.0064
1303.00,-0.0063
1302.00,-0.0062
1301.00,-0.0062
1300.00,-0.0063
1299.00,-0.0063
1298.00,-0.0064
1297.00,-0.0065
1296.00,-0.0065
1295.00,-0.0065
1294.00,-0.0064
1293.00,-0.0063
1292.00,-0.0063
1291.00,-0.0062
1290.00,-0.0061
1289.00,-0.0061
1288.00,-0.0061
1287.00,-0.0061
1286.00,-0.0062
1285.00,-0.0062
1284.00,-0.0061
1283.00,-0.0061
1282.00,-0.0060
1281.00,-0.0060
1280.00,-0.0061
1279.00,-0.0061
1278.00,-0.0061
1277.00,-0.0061
1276.00,-0.0060
1275.00,-0.0059
1274.00,-0.0059
1273.00,-0.0058
1272.00,-0.0058
1271.00,-0.0057
1270.00,-0.0057
1269.00,-0.0056
1268.00,-0.0055
1267.00,-0.0053
1266.00,-0.0051
1265.00,-0.0049
1264.00,-0.0048
1263.00,-0.0047
1262.00,-0.0046
1261.00,-0.0044
1260.00,-0.0042
1259.00,-0.0039
1258.00,-0.0036
1257.00,-0.0035
1256.00,-0.0033
1255.00,-0.0031
1254.00,-0.0029
1253.00,-0.0025
1252.00,-0.0022
1251.00,-0.0019
1250.00,-0.0016
1249.00,-0.0013
1248.00,-0.0010
1247.00,-0.0007
1246.00,-0.0003
1245.00,0.0001
1244.00,0.0004
1243.00,0.0007
1242.00,0.0010
1241.00,0.0012
1240.00,0.0014
1239.00,0.0018
1238.00,0.0021
1237.00,0.0026
1236.00,0.0029
1235.00,0.0032
1234.00,0.0034
1233.00,0.0037
1232.00,0.0040
1231.00,0.0043
1230.00,0.0046
1229.00,0.0049
1228.00,0.0053
1227.00,0.0056
1226.00,0.0059
1225.00,0.0061
1224.00,0.0062
1223.00,0.0065
1222.00,0.0068
1221.00,0.0072
1220.00,0.0075
1219.00,0.0078
1218.00,0.0080
1217.00,0.0082
1216.00,0.0085
1215.00,0.0086
1214.00,0.0088
1213.00,0.0091
1212.00,0.0094
1211.00,0.0097
1210.00,0.0100
1209.00,0.0103
1208.00,0.0105
1207.00,0.0106
1206.00,0.0107
1205.00,0.0109
1204.00,0.0111
1203.00,0.0114
1202.00,0.0116
1201.00,0.0118
1200.00,0.0120
1199.00,0.0121
1198.00,0.0123
1197.00,0.0124
1196.00,0.0125
1195.00,0.0126
1194.00,0.0128
1193.00,0.0129
1192.00,0.0132
1191.00,0.0133
1190.00,0.0134
1189.00,0.0135
1188.00,0.0135
1187.00,0.0137
1186.00,0.0139
1185.00,0.0140
1184.00,0.0141
1183.00,0.0142
1182.00,0.0143
1181.00,0.0143
1180.00,0.0143
1179.00,0.0144
1178.00,0.0144
1177.00,0.0146
1176.00,0.0148
1175.00,0.0150
1174.00,0.0152
1173.00,0.0154
1172.00,0.0155
1171.00,0.0155
1170.00,0.0156
1169.00,0.0156
1168.00,0.0157
1167.00,0.0158
1166.00,0.0160
1165.00,0.0161
1164.00,0.0163
1163.00,0.0164
1162.00,0.0165
1161.00,0.0167
1160.00,0.0168
1159.00,0.0169
1158.00,0.0170
1157.00,0.0171
1156.00,0.0173
1155.00,0.0176
1154.00,0.0178
1153.00,0.0179
1152.00,0.0180
1151.00,0.0181
1150.00,0.0182
1149.00,0.0183
1148.00,0.0185
1147.00,0.0187
1146.00,0.0188
1145.00,0.0190
1144.00,0.0193
1143.00,0.0196
1142.00,0.0200
1141.00,0.0202
1140.00,0.0204
1139.00,0.0205
1138.00,0.0207
1137.00,0.0209
1136.00,0.0212
1135.00,0.0215
1134.00,0.0218
1133.00,0.0221
1132.00,0.0223
1131.00,0.0225
1130.00,0.0228
1129.00,0.0232
1128.00,0.0236
1127.00,0.0239
1126.00,0.0240
1125.00,0.0241
1124.00,0.0243
1123.00,0.0247
1122.00,0.0252
1121.00,0.0258
1120.00,0.0263
1119.00,0.0267
1118.00,0.0270
1117.00,0.0273
1116.00,0.0277
1115.00,0.0282
1114.00,0.0287
1113.00,0.0291
1112.00,0.0294
1111.00,0.0298
1110.00,0.0302
1109.00,0.0307
1108.00,0.0312
1107.00,0.0316
1106.00,0.0319
1105.00,0.0322
1104.00,0.0326
1103.00,0.0331
1102.00,0.0337
1101.00,0.0343
1100.00,0.0348
1099.00,0.0352
1098.00,0.0356
1097.00,0.0359
1096.00,0.0362
1095.00,0.0365
1094.00,0.0368
1093.00,0.0373
1092.00,0.0378
1091.00,0.0383
1090.00,0.0386
1089.00,0.0388
1088.00,0.0389
1087.00,0.0392
1086.00,0.0395
1085.00,0.0399
1084.00,0.0403
1083.00,0.0406
1082.00,0.0410
1081.00,0.0414
1080.00,0.0418
1079.00,0.0422
1078.00,0.0427
1077.00,0.0431
1076.00,0.0434
1075.00,0.0435
1074.00,0.0434
1073.00,0.0435
1072.00,0.0437
1071.00,0.0438
1070.00,0.0439
1069.00,0.0440
1068.00,0.0442
1067.00,0.0444
1066.00,0.0447
1065.00,0.0451
1064.00,0.0455
1063.00,0.0458
1062.00,0.0459
1061.00,0.0458
1060.00,0.0458
1059.00,0.0459
1058.00,0.0461
1057.00,0.0464
1056.00,0.0467
1055.00,0.0469
1054.00,0.0472
1053.00,0.0474
1052.00,0.0476
1051.00,0.0477
1050.00,0.0478
1049.00,0.0481
1048.00,0.0484
1047.00,0.0486
1046.00,0.0486
1045.00,0.0485
1044.00,0.0486
1043.00,0.0486
1042.00,0.0484
1041.00,0.0483
1040.00,0.0482
1039.00,0.0483
1038.00,0.0484
1037.00,0.0484
1036.00,0.0483
1035.00,0.0482
1034.00,0.0480
1033.00,0.0480
1032.00,0.0481
1031.00,0.0481
1030.00,0.0480
1029.00,0.0478
1028.00,0.0476
1027.00,0.0475
1026.00,0.0475
1025.00,0.0475
1024.00,0.0475
1023.00,0.0474
1022.00,0.0472
1021.00,0.0469
1020.00,0.0468
1019.00,0.0466
1018.00,0.0465
1017.00,0.0465
1016.00,0.0464
1015.00,0.0464
1014.00,0.0463
1013.00,0.0461
1012.00,0.0458
1011.00,0.0456
1010.00,0.0454
1009.00,0.0451
1008.00,0.0448
1007.00,0.0445
1006.00,0.0441
1005.00,0.0438
1004.00,0.0437
1003.00,0.0436
1002.00,0.0435
1001.00,0.0432
1000.00,0.0427
999.00,0.0422
998.00,0.0417
997.00,0.0413
996.00,0.0411
995.00,0.0409
994.00,0.0404
993.00,0.0399
992.00,0.0395
991.00,0.0391
990.00,0.0388
989.00,0.0385
988.00,0.0383
987.00,0.0380
986.00,0.0377
985.00,0.0373
984.00,0.0368
983.00,0.0362
982.00,0.0356
981.00,0.0352
980.00,0.0349
979.00,0.0345
978.00,0.0340
977.00,0.0335
976.00,0.0330
975.00,0.0326
974.00,0.0322
973.00,0.0319
972.00,0.0316
971.00,0.0311
970.00,0.0304
969.00,0.0298
968.00,0.0292
967.00,0.0287
966.00,0.0282
965.00,0.0278
964.00,0.0274
963.00,0.0270
962.00,0.0267
961.00,0.0264
960.00,0.0261
959.00,0.0257
958.00,0.0253
957.00,0.0249
956.00,0.0246
955.00,0.0241
954.00,0.0238
953.00,0.0235
952.00,0.0233
951.00,0.0233
950.00,0.0232
949.00,0.0230
948.00,0.0226
947.00,0.0223
946.00,0.0219
945.00,0.0216
944.00,0.0213
943.00,0.0210
942.00,0.0207
941.00,0.0205
940.00,0.0204
939.00,0.0204
938.00,0.0204
937.00,0.0204
936.00,0.0202
935.00,0.0199
934.00,0.0197
933.00,0.0197
932.00,0.0198
931.00,0.0198
930.00,0.0198
929.00,0.0197
928.00,0.0196
927.00,0.0196
926.00,0.0195
925.00,0.0194
924.00,0.0194
923.00,0.0193
922.00,0.0193
921.00,0.0192
920.00,0.0191
919.00,0.0190
918.00,0.0189
917.00,0.0188
916.00,0.0188
915.00,0.0189
914.00,0.0189
913.00,0.0188
912.00,0.0187
911.00,0.0186
910.00,0.0184
909.00,0.0182
908.00,0.0180
907.00,0.0179
906.00,0.0180
905.00,0.0182
904.00,0.0186
903.00,0.0188
902.00,0.0189
901.00,0.0188
900.00,0.0185
899.00,0.0184
898.00,0.0184
897.00,0.0185
896.00,0.0187
895.00,0.0187
894.00,0.0186
893.00,0.0184
892.00,0.0182
891.00,0.0180
890.00,0.0179
889.00,0.0179
888.00,0.0180
887.00,0.0180
886.00,0.0179
885.00,0.0178
884.00,0.0180
883.00,0.0183
882.00,0.0184
881.00,0.0185
880.00,0.0183
879.00,0.0181
878.00,0.0178
877.00,0.0175
876.00,0.0172
875.00,0.0170
874.00,0.0168
873.00,0.0168
872.00,0.0168
871.00,0.0169
870.00,0.0171
869.00,0.0172
868.00,0.0171
867.00,0.0170
866.00,0.0170
865.00,0.0171
864.00,0.0173
863.00,0.0174
862.00,0.0175
861.00,0.0175
860.00,0.0174
859.00,0.0171
858.00,0.0168
857.00,0.0166
856.00,0.0167
855.00,0.0170
854.00,0.0173
853.00,0.0175
852.00,0.0175
851.00,0.0175
850.00,0.0177
849.00,0.0179
848.00,0.0181
847.00,0.0183
846.00,0.0185
845.00,0.0188
844.00,0.0189
843.00,0.0190
842.00,0.0189
841.00,0.0189
840.00,0.0188
839.00,0.0187
838.00,0.0187
837.00,0.0188
836.00,0.0192
835.00,0.0195
834.00,0.0196
833.00,0.0197
832.00,0.0197
831.00,0.0198
830.00,0.0198
829.00,0.0200
828.00,0.0202
827.00,0.0206
826.00,0.0210
825.00,0.0214
824.00,0.0216
823.00,0.0218
822.00,0.0219
821.00,0.0221
820.00,0.0223
819.00,0.0225
818.00,0.0227
817.00,0.0227
816.00,0.0227
815.00,0.0227
814.00,0.0228
813.00,0.0231
812.00,0.0235
811.00,0.0238
810.00,0.0240
809.00,0.0241
808.00,0.0243
807.00,0.0243
806.00,0.0243
805.00,0.0243
804.00,0.0244
803.00,0.0245
802.00,0.0247
801.00,0.0249
800.00,0.0252
799.00,0.0256
798.00,0.0258
797.00,0.0259
796.00,0.0259
795.00,0.0258
794.00,0.0257
793.00,0.0256
792.00,0.0257
791.00,0.0260
790.00,0.0261
789.00,0.0262
788.00,0.0261
787.00,0.0260
786.00,0.0260
785.00,0.0261
784.00,0.0262
783.00,0.0262
782.00,0.0260
781.00,0.0258
780.00,0.0256
779.00,0.0254
778.00,0.0252
777.00,0.0251
776.00,0.0251
775.00,0.0249
774.00,0.0246
773.00,0.0243
772.00,0.0240
771.00,0.0239
770.00,0.0238
769.00,0.0238
768.00,0.0236
767.00,0.0233
766.00,0.0230
765.00,0.0227
764.00,0.0225
763.00,0.0222
762.00,0.0219
761.00,0.0217
760.00,0.0215
759.00,0.0216
758.00,0.0219
757.00,0.0221
756.00,0.0221
755.00,0.0220
754.00,0.0218
753.00,0.0216
752.00,0.0216
751.00,0.0218
750.00,0.0221
749.00,0.0223
748.00,0.0224
747.00,0.0222
746.00,0.0219
745.00,0.0216
744.00,0.0213
743.00,0.0212
742.00,0.0212
741.00,0.0212
740.00,0.0209
739.00,0.0206
738.00,0.0204
737.00,0.0203
736.00,0.0203
735.00,0.0203
734.00,0.0203
733.00,0.0201
732.00,0.0200
731.00,0.0200
730.00,0.0201
729.00,0.0204
728.00,0.0207
727.00,0.0209
726.00,0.0211
725.00,0.0212
724.00,0.0210
723.00,0.0207
722.00,0.0205
721.00,0.0204
720.00,0.0203
719.00,0.0203
718.00,0.0202
717.00,0.0201
716.00,0.0200
715.00,0.0199
714.00,0.0199
713.00,0.0200
712.00,0.0202
711.00,0.0203
710.00,0.0201
709.00,0.0199
708.00,0.0198
707.00,0.0199
706.00,0.0199
705.00,0.0201
704.00,0.0203
703.00,0.0205
702.00,0.0204
701.00,0.0201
700.00,0.0198
699.00,0.0197
698.00,0.0198
697.00,0.0199
696.00,0.0200
695.00,0.0200
694.00,0.0202
693.00,0.0204
692.00,0.0207
691.00,0.0208
690.00,0.0209
689.00,0.0210
688.00,0.0209
687.00,0.0206
686.00,0.0201
685.00,0.0198
684.00,0.0196
683.00,0.0195
682.00,0.0193
681.00,0.0192
680.00,0.0192
679.00,0.0194
678.00,0.0196
677.00,0.0196
676.00,0.0195
675.00,0.0193
674.00,0.0191
673.00,0.0191
672.00,0.0193
671.00,0.0195
670.00,0.0197
669.00,0.0202
668.00,0.0209
667.00,0.0212
666.00,0.0213
665.00,0.0213
664.00,0.0212
663.00,0.0207
662.00,0.0198
661.00,0.0188
660.00,0.0182
659.00,0.0181
658.00,0.0186
657.00,0.0195
656.00,0.0204
655.00,0.0208
654.00,0.0205
653.00,0.0197
652.00,0.0190
651.00,0.0187
650.00,0.0187
