Created as New Dataset,Monday, April 03 2023
cm-1,A
4000.00,0.0006
3999.00,0.0006
3998.00,0.0006
3997.00,0.0006
3996.00,0.0006
3995.00,0.0006
3994.00,0.0005
3993.00,0.0005
3992.00,0.0005
3991.00,0.0005
3990.00,0.0005
3989.00,0.0005
3988.00,0.0005
3987.00,0.0004
3986.00,0.0005
3985.00,0.0005
3984.00,0.0005
3983.00,0.0005
3982.00,0.0005
3981.00,0.0005
3980.00,0.0005
3979.00,0.0005
3978.00,0.0005
3977.00,0.0005
3976.00,0.0004
3975.00,0.0004
3974.00,0.0004
3973.00,0.0004
3972.00,0.0004
3971.00,0.0005
3970.00,0.0005
3969.00,0.0005
3968.00,0.0005
3967.00,0.0004
3966.00,0.0004
3965.00,0.0004
3964.00,0.0004
3963.00,0.0006
3962.00,0.0006
3961.00,0.0006
3960.00,0.0005
3959.00,0.0004
3958.00,0.0004
3957.00,0.0004
3956.00,0.0004
3955.00,0.0003
3954.00,0.0003
3953.00,0.0003
3952.00,0.0004
3951.00,0.0005
3950.00,0.0006
3949.00,0.0006
3948.00,0.0006
3947.00,0.0007
3946.00,0.0006
3945.00,0.0006
3944.00,0.0005
3943.00,0.0003
3942.00,0.0003
3941.00,0.0002
3940.00,0.0003
3939.00,0.0003
3938.00,0.0003
3937.00,0.0004
3936.00,0.0004
3935.00,0.0004
3934.00,0.0004
3933.00,0.0005
3932.00,0.0005
3931.00,0.0005
3930.00,0.0005
3929.00,0.0005
3928.00,0.0005
3927.00,0.0005
3926.00,0.0005
3925.00,0.0004
3924.00,0.0004
3923.00,0.0004
3922.00,0.0004
3921.00,0.0004
3920.00,0.0004
3919.00,0.0004
3918.00,0.0004
3917.00,0.0005
3916.00,0.0005
3915.00,0.0004
3914.00,0.0004
3913.00,0.0004
3912.00,0.0003
3911.00,0.0003
3910.00,0.0003
3909.00,0.0004
3908.00,0.0004
3907.00,0.0004
3906.00,0.0004
3905.00,0.0004
3904.00,0.0005
3903.00,0.0005
3902.00,0.0006
3901.00,0.0006
3900.00,0.0006
3899.00,0.0005
3898.00,0.0004
3897.00,0.0004
3896.00,0.0004
3895.00,0.0004
3894.00,0.0004
3893.00,0.0004
3892.00,0.0003
3891.00,0.0003
3890.00,0.0002
3889.00,0.0002
3888.00,0.0002
3887.00,0.0002
3886.00,0.0002
3885.00,0.0002
3884.00,0.0003
3883.00,0.0003
3882.00,0.0002
3881.00,0.0001
3880.00,-0.0000
3879.00,0.0001
3878.00,0.0002
3877.00,0.0004
3876.00,0.0005
3875.00,0.0005
3874.00,0.0004
3873.00,0.0003
3872.00,0.0003
3871.00,0.0003
3870.00,0.0003
3869.00,0.0002
3868.00,0.0003
3867.00,0.0003
3866.00,0.0005
3865.00,0.0006
3864.00,0.0006
3863.00,0.0006
3862.00,0.0005
3861.00,0.0005
3860.00,0.0005
3859.00,0.0005
3858.00,0.0003
3857.00,0.0001
3856.00,-0.0002
3855.00,-0.0002
3854.00,-0.0001
3853.00,-0.0001
3852.00,-0.0001
3851.00,-0.0000
3850.00,0.0000
3849.00,0.0001
3848.00,0.0001
3847.00,0.0002
3846.00,0.0003
3845.00,0.0003
3844.00,0.0003
3843.00,0.0003
3842.00,0.0003
3841.00,0.0004
3840.00,0.0005
3839.00,0.0005
3838.00,0.0003
3837.00,0.0002
3836.00,0.0002
3835.00,0.0002
3834.00,0.0002
3833.00,0.0003
3832.00,0.0003
3831.00,0.0004
3830.00,0.0004
3829.00,0.0004
3828.00,0.0003
3827.00,0.0003
3826.00,0.0002
3825.00,0.0003
3824.00,0.0004
3823.00,0.0006
3822.00,0.0006
3821.00,0.0005
3820.00,0.0004
3819.00,0.0003
3818.00,0.0002
3817.00,0.0001
3816.00,0.0001
3815.00,0.0001
3814.00,0.0002
3813.00,0.0002
3812.00,0.0002
3811.00,0.0001
3810.00,0.0000
3809.00,0.0000
3808.00,0.0001
3807.00,0.0003
3806.00,0.0004
3805.00,0.0005
3804.00,0.0006
3803.00,0.0006
3802.00,0.0006
3801.00,0.0005
3800.00,0.0004
3799.00,0.0003
3798.00,0.0003
3797.00,0.0002
3796.00,0.0001
3795.00,0.0001
3794.00,0.0001
3793.00,0.0001
3792.00,0.0002
3791.00,0.0002
3790.00,0.0002
3789.00,0.0003
3788.00,0.0004
3787.00,0.0004
3786.00,0.0005
3785.00,0.0005
3784.00,0.0005
3783.00,0.0005
3782.00,0.0005
3781.00,0.0004
3780.00,0.0004
3779.00,0.0003
3778.00,0.0002
3777.00,0.0002
3776.00,0.0002
3775.00,0.0002
3774.00,0.0002
3773.00,0.0002
3772.00,0.0002
3771.00,0.0002
3770.00,0.0002
3769.00,0.0001
3768.00,0.0002
3767.00,0.0002
3766.00,0.0003
3765.00,0.0003
3764.00,0.0004
3763.00,0.0004
3762.00,0.0005
3761.00,0.0005
3760.00,0.0005
3759.00,0.0005
3758.00,0.0004
3757.00,0.0003
3756.00,0.0003
3755.00,0.0002
3754.00,0.0002
3753.00,0.0003
3752.00,0.0004
3751.00,0.0004
3750.00,0.0004
3749.00,0.0004
3748.00,0.0004
3747.00,0.0004
3746.00,0.0003
3745.00,0.0002
3744.00,0.0001
3743.00,0.0002
3742.00,0.0004
3741.00,0.0006
3740.00,0.0007
3739.00,0.0008
3738.00,0.0008
3737.00,0.0008
3736.00,0.0007
3735.00,0.0005
3734.00,0.0004
3733.00,0.0003
3732.00,0.0002
3731.00,0.0002
3730.00,0.0002
3729.00,0.0002
3728.00,0.0003
3727.00,0.0003
3726.00,0.0004
3725.00,0.0004
3724.00,0.0004
3723.00,0.0004
3722.00,0.0003
3721.00,0.0004
3720.00,0.0004
3719.00,0.0004
3718.00,0.0004
3717.00,0.0003
3716.00,0.0003
3715.00,0.0003
3714.00,0.0004
3713.00,0.0005
3712.00,0.0005
3711.00,0.0004
3710.00,0.0002
3709.00,0.0001
3708.00,0.0001
3707.00,0.0003
3706.00,0.0004
3705.00,0.0005
3704.00,0.0005
3703.00,0.0005
3702.00,0.0004
3701.00,0.0003
3700.00,0.0004
3699.00,0.0004
3698.00,0.0005
3697.00,0.0005
3696.00,0.0004
3695.00,0.0004
3694.00,0.0004
3693.00,0.0004
3692.00,0.0005
3691.00,0.0006
3690.00,0.0007
3689.00,0.0007
3688.00,0.0006
3687.00,0.0006
3686.00,0.0006
3685.00,0.0006
3684.00,0.0006
3683.00,0.0006
3682.00,0.0006
3681.00,0.0005
3680.00,0.0004
3679.00,0.0003
3678.00,0.0002
3677.00,0.0001
3676.00,0.0001
3675.00,-0.0000
3674.00,-0.0000
3673.00,0.0001
3672.00,0.0002
3671.00,0.0004
3670.00,0.0005
3669.00,0.0005
3668.00,0.0005
3667.00,0.0005
3666.00,0.0006
3665.00,0.0006
3664.00,0.0006
3663.00,0.0007
3662.00,0.0008
3661.00,0.0009
3660.00,0.0010
3659.00,0.0011
3658.00,0.0011
3657.00,0.0012
3656.00,0.0013
3655.00,0.0013
3654.00,0.0014
3653.00,0.0015
3652.00,0.0015
3651.00,0.0016
3650.00,0.0016
3649.00,0.0016
3648.00,0.0015
3647.00,0.0014
3646.00,0.0015
3645.00,0.0016
3644.00,0.0017
3643.00,0.0018
3642.00,0.0019
3641.00,0.0019
3640.00,0.0020
3639.00,0.0020
3638.00,0.0021
3637.00,0.0021
3636.00,0.0022
3635.00,0.0023
3634.00,0.0024
3633.00,0.0024
3632.00,0.0024
3631.00,0.0025
3630.00,0.0026
3629.00,0.0028
3628.00,0.0028
3627.00,0.0028
3626.00,0.0028
3625.00,0.0028
3624.00,0.0029
3623.00,0.0029
3622.00,0.0030
3621.00,0.0031
3620.00,0.0033
3619.00,0.0034
3618.00,0.0035
3617.00,0.0036
3616.00,0.0037
3615.00,0.0037
3614.00,0.0037
3613.00,0.0037
3612.00,0.0037
3611.00,0.0038
3610.00,0.0040
3609.00,0.0042
3608.00,0.0042
3607.00,0.0042
3606.00,0.0041
3605.00,0.0041
3604.00,0.0041
3603.00,0.0042
3602.00,0.0044
3601.00,0.0045
3600.00,0.0046
3599.00,0.0046
3598.00,0.0045
3597.00,0.0045
3596.00,0.0045
3595.00,0.0045
3594.00,0.0045
3593.00,0.0045
3592.00,0.0045
3591.00,0.0046
3590.00,0.0046
3589.00,0.0047
3588.00,0.0049
3587.00,0.0050
3586.00,0.0051
3585.00,0.0052
3584.00,0.0052
3583.00,0.0052
3582.00,0.0052
3581.00,0.0052
3580.00,0.0052
3579.00,0.0052
3578.00,0.0053
3577.00,0.0053
3576.00,0.0054
3575.00,0.0054
3574.00,0.0055
3573.00,0.0055
3572.00,0.0056
3571.00,0.0055
3570.00,0.0055
3569.00,0.0057
3568.00,0.0059
3567.00,0.0061
3566.00,0.0061
3565.00,0.0061
3564.00,0.0060
3563.00,0.0060
3562.00,0.0060
3561.00,0.0061
3560.00,0.0061
3559.00,0.0061
3558.00,0.0062
3557.00,0.0063
3556.00,0.0065
3555.00,0.0066
3554.00,0.0066
3553.00,0.0067
3552.00,0.0068
3551.00,0.0069
3550.00,0.0070
3549.00,0.0071
3548.00,0.0072
3547.00,0.0072
3546.00,0.0073
3545.00,0.0073
3544.00,0.0073
3543.00,0.0073
3542.00,0.0073
3541.00,0.0073
3540.00,0.0072
3539.00,0.0071
3538.00,0.0071
3537.00,0.0071
3536.00,0.0072
3535.00,0.0073
3534.00,0.0074
3533.00,0.0076
3532.00,0.0077
3531.00,0.0077
3530.00,0.0077
3529.00,0.0077
3528.00,0.0077
3527.00,0.0077
3526.00,0.0078
3525.00,0.0080
3524.00,0.0081
3523.00,0.0082
3522.00,0.0082
3521.00,0.0081
3520.00,0.0080
3519.00,0.0080
3518.00,0.0079
3517.00,0.0079
3516.00,0.0079
3515.00,0.0080
3514.00,0.0081
3513.00,0.0083
3512.00,0.0084
3511.00,0.0085
3510.00,0.0086
3509.00,0.0085
3508.00,0.0086
3507.00,0.0086
3506.00,0.0087
3505.00,0.0088
3504.00,0.0089
3503.00,0.0090
3502.00,0.0091
3501.00,0.0091
3500.00,0.0092
3499.00,0.0092
3498.00,0.0093
3497.00,0.0094
3496.00,0.0094
3495.00,0.0094
3494.00,0.0094
3493.00,0.0094
3492.00,0.0095
3491.00,0.0095
3490.00,0.0095
3489.00,0.0096
3488.00,0.0096
3487.00,0.0097
3486.00,0.0098
3485.00,0.0098
3484.00,0.0099
3483.00,0.0099
3482.00,0.0100
3481.00,0.0101
3480.00,0.0101
3479.00,0.0101
3478.00,0.0101
3477.00,0.0102
3476.00,0.0103
3475.00,0.0104
3474.00,0.0104
3473.00,0.0105
3472.00,0.0105
3471.00,0.0105
3470.00,0.0105
3469.00,0.0106
3468.00,0.0106
3467.00,0.0107
3466.00,0.0108
3465.00,0.0109
3464.00,0.0109
3463.00,0.0109
3462.00,0.0108
3461.00,0.0108
3460.00,0.0108
3459.00,0.0110
3458.00,0.0112
3457.00,0.0112
3456.00,0.0112
3455.00,0.0111
3454.00,0.0111
3453.00,0.0111
3452.00,0.0112
3451.00,0.0113
3450.00,0.0114
3449.00,0.0115
3448.00,0.0115
3447.00,0.0116
3446.00,0.0116
3445.00,0.0116
3444.00,0.0117
3443.00,0.0117
3442.00,0.0117
3441.00,0.0116
3440.00,0.0116
3439.00,0.0116
3438.00,0.0116
3437.00,0.0116
3436.00,0.0116
3435.00,0.0116
3434.00,0.0116
3433.00,0.0117
3432.00,0.0118
3431.00,0.0119
3430.00,0.0119
3429.00,0.0119
3428.00,0.0119
3427.00,0.0119
3426.00,0.0120
3425.00,0.0121
3424.00,0.0123
3423.00,0.0124
3422.00,0.0124
3421.00,0.0124
3420.00,0.0124
3419.00,0.0124
3418.00,0.0124
3417.00,0.0124
3416.00,0.0123
3415.00,0.0123
3414.00,0.0123
3413.00,0.0123
3412.00,0.0124
3411.00,0.0125
3410.00,0.0126
3409.00,0.0127
3408.00,0.0127
3407.00,0.0128
3406.00,0.0127
3405.00,0.0127
3404.00,0.0126
3403.00,0.0126
3402.00,0.0126
3401.00,0.0127
3400.00,0.0128
3399.00,0.0128
3398.00,0.0128
3397.00,0.0128
3396.00,0.0128
3395.00,0.0128
3394.00,0.0128
3393.00,0.0129
3392.00,0.0129
3391.00,0.0130
3390.00,0.0130
3389.00,0.0130
3388.00,0.0130
3387.00,0.0130
3386.00,0.0130
3385.00,0.0131
3384.00,0.0131
3383.00,0.0132
3382.00,0.0132
3381.00,0.0133
3380.00,0.0134
3379.00,0.0135
3378.00,0.0135
3377.00,0.0134
3376.00,0.0134
3375.00,0.0133
3374.00,0.0133
3373.00,0.0133
3372.00,0.0133
3371.00,0.0133
3370.00,0.0134
3369.00,0.0134
3368.00,0.0135
3367.00,0.0135
3366.00,0.0135
3365.00,0.0135
3364.00,0.0135
3363.00,0.0135
3362.00,0.0136
3361.00,0.0137
3360.00,0.0139
3359.00,0.0139
3358.00,0.0139
3357.00,0.0138
3356.00,0.0138
3355.00,0.0138
3354.00,0.0139
3353.00,0.0139
3352.00,0.0140
3351.00,0.0140
3350.00,0.0140
3349.00,0.0141
3348.00,0.0141
3347.00,0.0140
3346.00,0.0140
3345.00,0.0140
3344.00,0.0140
3343.00,0.0140
3342.00,0.0141
3341.00,0.0142
3340.00,0.0143
3339.00,0.0143
3338.00,0.0144
3337.00,0.0144
3336.00,0.0144
3335.00,0.0144
3334.00,0.0144
3333.00,0.0144
3332.00,0.0144
3331.00,0.0144
3330.00,0.0144
3329.00,0.0144
3328.00,0.0144
3327.00,0.0145
3326.00,0.0146
3325.00,0.0147
3324.00,0.0148
3323.00,0.0149
3322.00,0.0149
3321.00,0.0149
3320.00,0.0149
3319.00,0.0149
3318.00,0.0149
3317.00,0.0149
3316.00,0.0149
3315.00,0.0149
3314.00,0.0150
3313.00,0.0150
3312.00,0.0150
3311.00,0.0151
3310.00,0.0152
3309.00,0.0153
3308.00,0.0154
3307.00,0.0155
3306.00,0.0156
3305.00,0.0155
3304.00,0.0155
3303.00,0.0155
3302.00,0.0155
3301.00,0.0155
3300.00,0.0155
3299.00,0.0155
3298.00,0.0156
3297.00,0.0157
3296.00,0.0158
3295.00,0.0159
3294.00,0.0160
3293.00,0.0160
3292.00,0.0160
3291.00,0.0160
3290.00,0.0160
3289.00,0.0160
3288.00,0.0161
3287.00,0.0162
3286.00,0.0163
3285.00,0.0164
3284.00,0.0164
3283.00,0.0165
3282.00,0.0165
3281.00,0.0165
3280.00,0.0165
3279.00,0.0164
3278.00,0.0164
3277.00,0.0165
3276.00,0.0165
3275.00,0.0165
3274.00,0.0165
3273.00,0.0166
3272.00,0.0166
3271.00,0.0167
3270.00,0.0167
3269.00,0.0168
3268.00,0.0168
3267.00,0.0168
3266.00,0.0167
3265.00,0.0166
3264.00,0.0165
3263.00,0.0165
3262.00,0.0165
3261.00,0.0166
3260.00,0.0167
3259.00,0.0168
3258.00,0.0168
3257.00,0.0167
3256.00,0.0166
3255.00,0.0166
3254.00,0.0166
3253.00,0.0166
3252.00,0.0166
3251.00,0.0165
3250.00,0.0165
3249.00,0.0164
3248.00,0.0163
3247.00,0.0163
3246.00,0.0163
3245.00,0.0163
3244.00,0.0162
3243.00,0.0162
3242.00,0.0161
3241.00,0.0161
3240.00,0.0160
3239.00,0.0160
3238.00,0.0160
3237.00,0.0160
3236.00,0.0161
3235.00,0.0161
3234.00,0.0161
3233.00,0.0160
3232.00,0.0160
3231.00,0.0159
3230.00,0.0158
3229.00,0.0157
3228.00,0.0156
3227.00,0.0156
3226.00,0.0155
3225.00,0.0155
3224.00,0.0155
3223.00,0.0154
3222.00,0.0154
3221.00,0.0154
3220.00,0.0154
3219.00,0.0153
3218.00,0.0153
3217.00,0.0153
3216.00,0.0153
3215.00,0.0154
3214.00,0.0153
3213.00,0.0152
3212.00,0.0151
3211.00,0.0150
3210.00,0.0150
3209.00,0.0149
3208.00,0.0149
3207.00,0.0149
3206.00,0.0149
3205.00,0.0149
3204.00,0.0150
3203.00,0.0150
3202.00,0.0149
3201.00,0.0148
3200.00,0.0148
3199.00,0.0147
3198.00,0.0146
3197.00,0.0145
3196.00,0.0145
3195.00,0.0144
3194.00,0.0143
3193.00,0.0142
3192.00,0.0142
3191.00,0.0141
3190.00,0.0140
3189.00,0.0139
3188.00,0.0139
3187.00,0.0138
3186.00,0.0138
3185.00,0.0138
3184.00,0.0138
3183.00,0.0138
3182.00,0.0138
3181.00,0.0138
3180.00,0.0137
3179.00,0.0136
3178.00,0.0135
3177.00,0.0133
3176.00,0.0132
3175.00,0.0132
3174.00,0.0131
3173.00,0.0132
3172.00,0.0131
3171.00,0.0131
3170.00,0.0131
3169.00,0.0130
3168.00,0.0129
3167.00,0.0129
3166.00,0.0129
3165.00,0.0130
3164.00,0.0130
3163.00,0.0130
3162.00,0.0129
3161.00,0.0128
3160.00,0.0126
3159.00,0.0125
3158.00,0.0124
3157.00,0.0123
3156.00,0.0123
3155.00,0.0123
3154.00,0.0123
3153.00,0.0123
3152.00,0.0123
3151.00,0.0123
3150.00,0.0122
3149.00,0.0122
3148.00,0.0121
3147.00,0.0121
3146.00,0.0121
3145.00,0.0121
3144.00,0.0120
3143.00,0.0120
3142.00,0.0120
3141.00,0.0119
3140.00,0.0119
3139.00,0.0119
3138.00,0.0119
3137.00,0.0119
3136.00,0.0119
3135.00,0.0119
3134.00,0.0119
3133.00,0.0118
3132.00,0.0118
3131.00,0.0118
3130.00,0.0118
3129.00,0.0118
3128.00,0.0118
3127.00,0.0118
3126.00,0.0118
3125.00,0.0118
3124.00,0.0117
3123.00,0.0117
3122.00,0.0117
3121.00,0.0117
3120.00,0.0117
3119.00,0.0118
3118.00,0.0118
3117.00,0.0118
3116.00,0.0118
3115.00,0.0118
3114.00,0.0118
3113.00,0.0118
3112.00,0.0118
3111.00,0.0118
3110.00,0.0118
3109.00,0.0118
3108.00,0.0118
3107.00,0.0118
3106.00,0.0119
3105.00,0.0119
3104.00,0.0119
3103.00,0.0119
3102.00,0.0118
3101.00,0.0118
3100.00,0.0117
3099.00,0.0117
3098.00,0.0117
3097.00,0.0117
3096.00,0.0118
3095.00,0.0119
3094.00,0.0119
3093.00,0.0119
3092.00,0.0119
3091.00,0.0118
3090.00,0.0117
3089.00,0.0116
3088.00,0.0115
3087.00,0.0115
3086.00,0.0115
3085.00,0.0116
3084.00,0.0117
3083.00,0.0116
3082.00,0.0116
3081.00,0.0116
3080.00,0.0115
3079.00,0.0115
3078.00,0.0115
3077.00,0.0115
3076.00,0.0114
3075.00,0.0114
3074.00,0.0114
3073.00,0.0114
3072.00,0.0114
3071.00,0.0114
3070.00,0.0114
3069.00,0.0113
3068.00,0.0113
3067.00,0.0112
3066.00,0.0112
3065.00,0.0111
3064.00,0.0110
3063.00,0.0109
3062.00,0.0108
3061.00,0.0109
3060.00,0.0109
3059.00,0.0109
3058.00,0.0109
3057.00,0.0109
3056.00,0.0108
3055.00,0.0108
3054.00,0.0107
3053.00,0.0106
3052.00,0.0106
3051.00,0.0106
3050.00,0.0106
3049.00,0.0106
3048.00,0.0106
3047.00,0.0106
3046.00,0.0105
3045.00,0.0105
3044.00,0.0103
3043.00,0.0102
3042.00,0.0101
3041.00,0.0100
3040.00,0.0100
3039.00,0.0100
3038.00,0.0099
3037.00,0.0099
3036.00,0.0099
3035.00,0.0099
3034.00,0.0099
3033.00,0.0099
3032.00,0.0098
3031.00,0.0097
3030.00,0.0096
3029.00,0.0095
3028.00,0.0095
3027.00,0.0095
3026.00,0.0095
3025.00,0.0094
3024.00,0.0094
3023.00,0.0093
3022.00,0.0093
3021.00,0.0092
3020.00,0.0091
3019.00,0.0089
3018.00,0.0088
3017.00,0.0088
3016.00,0.0088
3015.00,0.0087
3014.00,0.0086
3013.00,0.0085
3012.00,0.0084
3011.00,0.0083
3010.00,0.0082
3009.00,0.0080
3008.00,0.0078
3007.00,0.0076
3006.00,0.0075
3005.00,0.0074
3004.00,0.0072
3003.00,0.0071
3002.00,0.0069
3001.00,0.0067
3000.00,0.0066
2999.00,0.0064
2998.00,0.0063
2997.00,0.0062
2996.00,0.0061
2995.00,0.0060
2994.00,0.0060
2993.00,0.0059
2992.00,0.0058
2991.00,0.0058
2990.00,0.0057
2989.00,0.0056
2988.00,0.0055
2987.00,0.0053
2986.00,0.0051
2985.00,0.0047
2984.00,0.0043
2983.00,0.0039
2982.00,0.0038
2981.00,0.0038
2980.00,0.0040
2979.00,0.0043
2978.00,0.0045
2977.00,0.0048
2976.00,0.0050
2975.00,0.0051
2974.00,0.0051
2973.00,0.0050
2972.00,0.0050
2971.00,0.0050
2970.00,0.0052
2969.00,0.0055
2968.00,0.0058
2967.00,0.0060
2966.00,0.0061
2965.00,0.0062
2964.00,0.0063
2963.00,0.0064
2962.00,0.0065
2961.00,0.0066
2960.00,0.0066
2959.00,0.0066
2958.00,0.0066
2957.00,0.0067
2956.00,0.0068
2955.00,0.0069
2954.00,0.0070
2953.00,0.0071
2952.00,0.0072
2951.00,0.0073
2950.00,0.0073
2949.00,0.0074
2948.00,0.0075
2947.00,0.0075
2946.00,0.0076
2945.00,0.0077
2944.00,0.0078
2943.00,0.0079
2942.00,0.0080
2941.00,0.0081
2940.00,0.0081
2939.00,0.0081
2938.00,0.0081
2937.00,0.0081
2936.00,0.0081
2935.00,0.0082
2934.00,0.0082
2933.00,0.0082
2932.00,0.0082
2931.00,0.0081
2930.00,0.0081
2929.00,0.0081
2928.00,0.0081
2927.00,0.0080
2926.00,0.0079
2925.00,0.0079
2924.00,0.0078
2923.00,0.0078
2922.00,0.0077
2921.00,0.0076
2920.00,0.0075
2919.00,0.0073
2918.00,0.0072
2917.00,0.0071
2916.00,0.0071
2915.00,0.0071
2914.00,0.0071
2913.00,0.0071
2912.00,0.0072
2911.00,0.0072
2910.00,0.0073
2909.00,0.0072
2908.00,0.0072
2907.00,0.0072
2906.00,0.0072
2905.00,0.0071
2904.00,0.0071
2903.00,0.0070
2902.00,0.0070
2901.00,0.0070
2900.00,0.0070
2899.00,0.0070
2898.00,0.0070
2897.00,0.0070
2896.00,0.0069
2895.00,0.0069
2894.00,0.0069
2893.00,0.0069
2892.00,0.0069
2891.00,0.0069
2890.00,0.0069
2889.00,0.0069
2888.00,0.0069
2887.00,0.0070
2886.00,0.0070
2885.00,0.0069
2884.00,0.0069
2883.00,0.0069
2882.00,0.0069
2881.00,0.0070
2880.00,0.0071
2879.00,0.0071
2878.00,0.0072
2877.00,0.0073
2876.00,0.0073
2875.00,0.0073
2874.00,0.0072
2873.00,0.0072
2872.00,0.0072
2871.00,0.0072
2870.00,0.0072
2869.00,0.0071
2868.00,0.0071
2867.00,0.0071
2866.00,0.0071
2865.00,0.0070
2864.00,0.0070
2863.00,0.0070
2862.00,0.0070
2861.00,0.0070
2860.00,0.0071
2859.00,0.0071
2858.00,0.0072
2857.00,0.0072
2856.00,0.0071
2855.00,0.0070
2854.00,0.0069
2853.00,0.0068
2852.00,0.0068
2851.00,0.0068
2850.00,0.0068
2849.00,0.0067
2848.00,0.0067
2847.00,0.0066
2846.00,0.0066
2845.00,0.0066
2844.00,0.0065
2843.00,0.0065
2842.00,0.0065
2841.00,0.0064
2840.00,0.0064
2839.00,0.0063
2838.00,0.0062
2837.00,0.0062
2836.00,0.0063
2835.00,0.0063
2834.00,0.0063
2833.00,0.0063
2832.00,0.0062
2831.00,0.0061
2830.00,0.0060
2829.00,0.0060
2828.00,0.0060
2827.00,0.0061
2826.00,0.0061
2825.00,0.0061
2824.00,0.0061
2823.00,0.0060
2822.00,0.0060
2821.00,0.0059
2820.00,0.0058
2819.00,0.0058
2818.00,0.0057
2817.00,0.0057
2816.00,0.0057
2815.00,0.0056
2814.00,0.0056
2813.00,0.0056
2812.00,0.0056
2811.00,0.0056
2810.00,0.0056
2809.00,0.0056
2808.00,0.0055
2807.00,0.0055
2806.00,0.0055
2805.00,0.0055
2804.00,0.0055
2803.00,0.0055
2802.00,0.0055
2801.00,0.0055
2800.00,0.0055
2799.00,0.0055
2798.00,0.0054
2797.00,0.0054
2796.00,0.0054
2795.00,0.0053
2794.00,0.0053
2793.00,0.0053
2792.00,0.0053
2791.00,0.0053
2790.00,0.0053
2789.00,0.0053
2788.00,0.0053
2787.00,0.0052
2786.00,0.0052
2785.00,0.0051
2784.00,0.0051
2783.00,0.0051
2782.00,0.0050
2781.00,0.0049
2780.00,0.0048
2779.00,0.0048
2778.00,0.0048
2777.00,0.0048
2776.00,0.0049
2775.00,0.0049
2774.00,0.0049
2773.00,0.0049
2772.00,0.0049
2771.00,0.0048
2770.00,0.0047
2769.00,0.0046
2768.00,0.0046
2767.00,0.0046
2766.00,0.0046
2765.00,0.0046
2764.00,0.0047
2763.00,0.0047
2762.00,0.0047
2761.00,0.0047
2760.00,0.0047
2759.00,0.0046
2758.00,0.0046
2757.00,0.0046
2756.00,0.0046
2755.00,0.0046
2754.00,0.0046
2753.00,0.0046
2752.00,0.0046
2751.00,0.0046
2750.00,0.0046
2749.00,0.0046
2748.00,0.0046
2747.00,0.0045
2746.00,0.0045
2745.00,0.0045
2744.00,0.0045
2743.00,0.0045
2742.00,0.0045
2741.00,0.0044
2740.00,0.0044
2739.00,0.0044
2738.00,0.0043
2737.00,0.0043
2736.00,0.0043
2735.00,0.0043
2734.00,0.0043
2733.00,0.0043
2732.00,0.0044
2731.00,0.0043
2730.00,0.0043
2729.00,0.0042
2728.00,0.0042
2727.00,0.0042
2726.00,0.0042
2725.00,0.0042
2724.00,0.0042
2723.00,0.0042
2722.00,0.0041
2721.00,0.0041
2720.00,0.0041
2719.00,0.0041
2718.00,0.0041
2717.00,0.0041
2716.00,0.0041
2715.00,0.0041
2714.00,0.0041
2713.00,0.0041
2712.00,0.0041
2711.00,0.0040
2710.00,0.0040
2709.00,0.0040
2708.00,0.0040
2707.00,0.0040
2706.00,0.0039
2705.00,0.0039
2704.00,0.0039
2703.00,0.0039
2702.00,0.0038
2701.00,0.0038
2700.00,0.0038
2699.00,0.0038
2698.00,0.0038
2697.00,0.0038
2696.00,0.0038
2695.00,0.0038
2694.00,0.0038
2693.00,0.0039
2692.00,0.0039
2691.00,0.0038
2690.00,0.0038
2689.00,0.0037
2688.00,0.0037
2687.00,0.0037
2686.00,0.0038
2685.00,0.0038
2684.00,0.0038
2683.00,0.0037
2682.00,0.0037
2681.00,0.0037
2680.00,0.0036
2679.00,0.0036
2678.00,0.0035
2677.00,0.0035
2676.00,0.0035
2675.00,0.0035
2674.00,0.0035
2673.00,0.0035
2672.00,0.0035
2671.00,0.0035
2670.00,0.0034
2669.00,0.0034
2668.00,0.0034
2667.00,0.0034
2666.00,0.0034
2665.00,0.0034
2664.00,0.0034
2663.00,0.0034
2662.00,0.0035
2661.00,0.0035
2660.00,0.0035
2659.00,0.0035
2658.00,0.0035
2657.00,0.0035
2656.00,0.0035
2655.00,0.0035
2654.00,0.0035
2653.00,0.0035
2652.00,0.0035
2651.00,0.0035
2650.00,0.0035
2649.00,0.0035
2648.00,0.0035
2647.00,0.0034
2646.00,0.0033
2645.00,0.0033
2644.00,0.0034
2643.00,0.0034
2642.00,0.0035
2641.00,0.0034
2640.00,0.0034
2639.00,0.0034
2638.00,0.0034
2637.00,0.0034
2636.00,0.0033
2635.00,0.0033
2634.00,0.0034
2633.00,0.0034
2632.00,0.0034
2631.00,0.0034
2630.00,0.0033
2629.00,0.0032
2628.00,0.0032
2627.00,0.0032
2626.00,0.0032
2625.00,0.0033
2624.00,0.0033
2623.00,0.0033
2622.00,0.0034
2621.00,0.0034
2620.00,0.0034
2619.00,0.0033
2618.00,0.0033
2617.00,0.0033
2616.00,0.0033
2615.00,0.0032
2614.00,0.0032
2613.00,0.0032
2612.00,0.0033
2611.00,0.0034
2610.00,0.0034
2609.00,0.0033
2608.00,0.0032
2607.00,0.0032
2606.00,0.0033
2605.00,0.0033
2604.00,0.0033
2603.00,0.0034
2602.00,0.0034
2601.00,0.0033
2600.00,0.0033
2599.00,0.0033
2598.00,0.0032
2597.00,0.0031
2596.00,0.0031
2595.00,0.0030
2594.00,0.0031
2593.00,0.0031
2592.00,0.0032
2591.00,0.0032
2590.00,0.0032
2589.00,0.0032
2588.00,0.0031
2587.00,0.0030
2586.00,0.0030
2585.00,0.0029
2584.00,0.0028
2583.00,0.0028
2582.00,0.0028
2581.00,0.0029
2580.00,0.0030
2579.00,0.0031
2578.00,0.0031
2577.00,0.0030
2576.00,0.0029
2575.00,0.0028
2574.00,0.0028
2573.00,0.0029
2572.00,0.0029
2571.00,0.0028
2570.00,0.0028
2569.00,0.0027
2568.00,0.0028
2567.00,0.0029
2566.00,0.0030
2565.00,0.0030
2564.00,0.0030
2563.00,0.0030
2562.00,0.0030
2561.00,0.0030
2560.00,0.0030
2559.00,0.0030
2558.00,0.0030
2557.00,0.0030
2556.00,0.0030
2555.00,0.0030
2554.00,0.0030
2553.00,0.0029
2552.00,0.0027
2551.00,0.0026
2550.00,0.0025
2549.00,0.0025
2548.00,0.0024
2547.00,0.0024
2546.00,0.0024
2545.00,0.0025
2544.00,0.0025
2543.00,0.0025
2542.00,0.0025
2541.00,0.0023
2540.00,0.0022
2539.00,0.0021
2538.00,0.0021
2537.00,0.0021
2536.00,0.0022
2535.00,0.0023
2534.00,0.0023
2533.00,0.0024
2532.00,0.0024
2531.00,0.0023
2530.00,0.0023
2529.00,0.0023
2528.00,0.0022
2527.00,0.0022
2526.00,0.0021
2525.00,0.0021
2524.00,0.0021
2523.00,0.0021
2522.00,0.0021
2521.00,0.0022
2520.00,0.0022
2519.00,0.0022
2518.00,0.0023
2517.00,0.0024
2516.00,0.0024
2515.00,0.0024
2514.00,0.0023
2513.00,0.0022
2512.00,0.0021
2511.00,0.0022
2510.00,0.0023
2509.00,0.0024
2508.00,0.0024
2507.00,0.0024
2506.00,0.0024
2505.00,0.0023
2504.00,0.0022
2503.00,0.0022
2502.00,0.0022
2501.00,0.0022
2500.00,0.0022
2499.00,0.0022
2498.00,0.0022
2497.00,0.0022
2496.00,0.0022
2495.00,0.0023
2494.00,0.0023
2493.00,0.0024
2492.00,0.0024
2491.00,0.0024
2490.00,0.0024
2489.00,0.0024
2488.00,0.0023
2487.00,0.0023
2486.00,0.0023
2485.00,0.0022
2484.00,0.0020
2483.00,0.0020
2482.00,0.0020
2481.00,0.0021
2480.00,0.0022
2479.00,0.0023
2478.00,0.0022
2477.00,0.0022
2476.00,0.0021
2475.00,0.0020
2474.00,0.0020
2473.00,0.0020
2472.00,0.0020
2471.00,0.0020
2470.00,0.0020
2469.00,0.0020
2468.00,0.0020
2467.00,0.0019
2466.00,0.0019
2465.00,0.0019
2464.00,0.0018
2463.00,0.0018
2462.00,0.0018
2461.00,0.0018
2460.00,0.0018
2459.00,0.0019
2458.00,0.0020
2457.00,0.0020
2456.00,0.0020
2455.00,0.0020
2454.00,0.0020
2453.00,0.0021
2452.00,0.0021
2451.00,0.0021
2450.00,0.0021
2449.00,0.0020
2448.00,0.0019
2447.00,0.0019
2446.00,0.0019
2445.00,0.0018
2444.00,0.0018
2443.00,0.0017
2442.00,0.0017
2441.00,0.0017
2440.00,0.0017
2439.00,0.0018
2438.00,0.0018
2437.00,0.0018
2436.00,0.0018
2435.00,0.0017
2434.00,0.0016
2433.00,0.0015
2432.00,0.0015
2431.00,0.0016
2430.00,0.0016
2429.00,0.0017
2428.00,0.0017
2427.00,0.0017
2426.00,0.0016
2425.00,0.0016
2424.00,0.0016
2423.00,0.0016
2422.00,0.0016
2421.00,0.0015
2420.00,0.0015
2419.00,0.0015
2418.00,0.0015
2417.00,0.0014
2416.00,0.0014
2415.00,0.0014
2414.00,0.0014
2413.00,0.0014
2412.00,0.0014
2411.00,0.0015
2410.00,0.0015
2409.00,0.0015
2408.00,0.0014
2407.00,0.0014
2406.00,0.0014
2405.00,0.0014
2404.00,0.0014
2403.00,0.0014
2402.00,0.0013
2401.00,0.0013
2400.00,0.0013
2399.00,0.0013
2398.00,0.0013
2397.00,0.0012
2396.00,0.0012
2395.00,0.0011
2394.00,0.0011
2393.00,0.0011
2392.00,0.0011
2391.00,0.0011
2390.00,0.0011
2389.00,0.0011
2388.00,0.0011
2387.00,0.0011
2386.00,0.0010
2385.00,0.0010
2384.00,0.0009
2383.00,0.0008
2382.00,0.0008
2381.00,0.0009
2380.00,0.0010
2379.00,0.0011
2378.00,0.0011
2377.00,0.0011
2376.00,0.0011
2375.00,0.0010
2374.00,0.0010
2373.00,0.0010
2372.00,0.0010
2371.00,0.0008
2370.00,0.0005
2369.00,0.0001
2368.00,-0.0001
2367.00,-0.0001
2366.00,0.0002
2365.00,0.0006
2364.00,0.0006
2363.00,0.0004
2362.00,0.0002
2361.00,0.0002
2360.00,0.0004
2359.00,0.0006
2358.00,0.0006
2357.00,0.0007
2356.00,0.0006
2355.00,0.0005
2354.00,0.0005
2353.00,0.0005
2352.00,0.0004
2351.00,0.0004
2350.00,0.0003
2349.00,0.0002
2348.00,0.0003
2347.00,0.0003
2346.00,0.0002
2345.00,0.0002
2344.00,0.0003
2343.00,0.0004
2342.00,0.0006
2341.00,0.0008
2340.00,0.0008
2339.00,0.0007
2338.00,0.0004
2337.00,0.0002
2336.00,0.0002
2335.00,0.0003
2334.00,0.0005
2333.00,0.0006
2332.00,0.0007
2331.00,0.0006
2330.00,0.0004
2329.00,0.0003
2328.00,0.0003
2327.00,0.0004
2326.00,0.0005
2325.00,0.0005
2324.00,0.0005
2323.00,0.0005
2322.00,0.0005
2321.00,0.0005
2320.00,0.0004
2319.00,0.0003
2318.00,0.0003
2317.00,0.0003
2316.00,0.0004
2315.00,0.0004
2314.00,0.0005
2313.00,0.0004
2312.00,0.0004
2311.00,0.0005
2310.00,0.0006
2309.00,0.0006
2308.00,0.0007
2307.00,0.0007
2306.00,0.0007
2305.00,0.0006
2304.00,0.0006
2303.00,0.0005
2302.00,0.0004
2301.00,0.0004
2300.00,0.0004
2299.00,0.0004
2298.00,0.0004
2297.00,0.0004
2296.00,0.0005
2295.00,0.0005
2294.00,0.0006
2293.00,0.0008
2292.00,0.0010
2291.00,0.0011
2290.00,0.0010
2289.00,0.0009
2288.00,0.0009
2287.00,0.0010
2286.00,0.0011
2285.00,0.0012
2284.00,0.0013
2283.00,0.0014
2282.00,0.0014
2281.00,0.0013
2280.00,0.0013
2279.00,0.0012
2278.00,0.0012
2277.00,0.0011
2276.00,0.0010
2275.00,0.0009
2274.00,0.0008
2273.00,0.0007
2272.00,0.0007
2271.00,0.0007
2270.00,0.0008
2269.00,0.0008
2268.00,0.0008
2267.00,0.0008
2266.00,0.0008
2265.00,0.0008
2264.00,0.0009
2263.00,0.0010
2262.00,0.0011
2261.00,0.0012
2260.00,0.0012
2259.00,0.0012
2258.00,0.0009
2257.00,0.0006
2256.00,0.0004
2255.00,0.0003
2254.00,0.0004
2253.00,0.0005
2252.00,0.0007
2251.00,0.0009
2250.00,0.0009
2249.00,0.0009
2248.00,0.0008
2247.00,0.0008
2246.00,0.0009
2245.00,0.0011
2244.00,0.0012
2243.00,0.0012
2242.00,0.0011
2241.00,0.0010
2240.00,0.0009
2239.00,0.0008
2238.00,0.0008
2237.00,0.0008
2236.00,0.0009
2235.00,0.0009
2234.00,0.0010
2233.00,0.0010
2232.00,0.0010
2231.00,0.0008
2230.00,0.0007
2229.00,0.0006
2228.00,0.0006
2227.00,0.0006
2226.00,0.0006
2225.00,0.0005
2224.00,0.0004
2223.00,0.0004
2222.00,0.0004
2221.00,0.0004
2220.00,0.0006
2219.00,0.0007
2218.00,0.0007
2217.00,0.0007
2216.00,0.0008
2215.00,0.0009
2214.00,0.0010
2213.00,0.0009
2212.00,0.0007
2211.00,0.0005
2210.00,0.0004
2209.00,0.0005
2208.00,0.0006
2207.00,0.0007
2206.00,0.0007
2205.00,0.0006
2204.00,0.0005
2203.00,0.0004
2202.00,0.0004
2201.00,0.0004
2200.00,0.0004
2199.00,0.0003
2198.00,0.0004
2197.00,0.0005
2196.00,0.0006
2195.00,0.0006
2194.00,0.0006
2193.00,0.0005
2192.00,0.0004
2191.00,0.0002
2190.00,-0.0001
2189.00,-0.0002
2188.00,-0.0000
2187.00,0.0004
2186.00,0.0009
2185.00,0.0010
2184.00,0.0007
2183.00,0.0003
2182.00,0.0000
2181.00,-0.0000
2180.00,0.0001
2179.00,0.0003
2178.00,0.0005
2177.00,0.0006
2176.00,0.0007
2175.00,0.0007
2174.00,0.0006
2173.00,0.0005
2172.00,0.0005
2171.00,0.0005
2170.00,0.0007
2169.00,0.0010
2168.00,0.0011
2167.00,0.0011
2166.00,0.0011
2165.00,0.0012
2164.00,0.0014
2163.00,0.0017
2162.00,0.0017
2161.00,0.0013
2160.00,0.0007
2159.00,0.0000
2158.00,-0.0004
2157.00,-0.0005
2156.00,-0.0004
2155.00,-0.0002
2154.00,-0.0000
2153.00,0.0002
2152.00,0.0002
2151.00,-0.0001
2150.00,-0.0004
2149.00,-0.0005
2148.00,-0.0003
2147.00,0.0000
2146.00,0.0004
2145.00,0.0007
2144.00,0.0008
2143.00,0.0009
2142.00,0.0010
2141.00,0.0010
2140.00,0.0010
2139.00,0.0008
2138.00,0.0005
2137.00,0.0003
2136.00,0.0001
2135.00,-0.0001
2134.00,-0.0001
2133.00,-0.0001
2132.00,0.0001
2131.00,0.0001
2130.00,0.0002
2129.00,0.0004
2128.00,0.0005
2127.00,0.0006
2126.00,0.0006
2125.00,0.0005
2124.00,0.0004
2123.00,0.0003
2122.00,0.0002
2121.00,0.0003
2120.00,0.0003
2119.00,0.0003
2118.00,0.0003
2117.00,0.0003
2116.00,0.0002
2115.00,0.0000
2114.00,-0.0001
2113.00,-0.0002
2112.00,-0.0001
2111.00,0.0001
2110.00,0.0003
2109.00,0.0005
2108.00,0.0006
2107.00,0.0007
2106.00,0.0008
2105.00,0.0008
2104.00,0.0007
2103.00,0.0007
2102.00,0.0006
2101.00,0.0006
2100.00,0.0005
2099.00,0.0003
2098.00,0.0001
2097.00,0.0001
2096.00,0.0002
2095.00,0.0003
2094.00,0.0004
2093.00,0.0004
2092.00,0.0003
2091.00,0.0003
2090.00,0.0003
2089.00,0.0003
2088.00,0.0003
2087.00,0.0003
2086.00,0.0003
2085.00,0.0004
2084.00,0.0005
2083.00,0.0006
2082.00,0.0006
2081.00,0.0007
2080.00,0.0007
2079.00,0.0007
2078.00,0.0006
2077.00,0.0006
2076.00,0.0006
2075.00,0.0007
2074.00,0.0007
2073.00,0.0007
2072.00,0.0006
2071.00,0.0006
2070.00,0.0005
2069.00,0.0004
2068.00,0.0001
2067.00,0.0000
2066.00,0.0000
2065.00,0.0002
2064.00,0.0004
2063.00,0.0006
2062.00,0.0008
2061.00,0.0008
2060.00,0.0007
2059.00,0.0005
2058.00,0.0004
2057.00,0.0004
2056.00,0.0004
2055.00,0.0004
2054.00,0.0004
2053.00,0.0004
2052.00,0.0005
2051.00,0.0004
2050.00,0.0003
2049.00,0.0001
2048.00,0.0001
2047.00,0.0002
2046.00,0.0004
2045.00,0.0007
2044.00,0.0009
2043.00,0.0010
2042.00,0.0009
2041.00,0.0006
2040.00,0.0004
2039.00,0.0002
2038.00,0.0003
2037.00,0.0006
2036.00,0.0009
2035.00,0.0010
2034.00,0.0008
2033.00,0.0007
2032.00,0.0008
2031.00,0.0011
2030.00,0.0012
2029.00,0.0010
2028.00,0.0008
2027.00,0.0006
2026.00,0.0004
2025.00,0.0001
2024.00,-0.0001
2023.00,-0.0003
2022.00,-0.0004
2021.00,-0.0005
2020.00,-0.0005
2019.00,-0.0005
2018.00,-0.0006
2017.00,-0.0007
2016.00,-0.0007
2015.00,-0.0005
2014.00,-0.0002
2013.00,0.0000
2012.00,0.0002
2011.00,0.0003
2010.00,0.0004
2009.00,0.0004
2008.00,0.0004
2007.00,0.0002
2006.00,0.0001
2005.00,-0.0000
2004.00,-0.0000
2003.00,0.0001
2002.00,0.0004
2001.00,0.0007
2000.00,0.0006
1999.00,0.0004
1998.00,0.0002
1997.00,0.0003
1996.00,0.0005
1995.00,0.0008
1994.00,0.0010
1993.00,0.0010
1992.00,0.0009
1991.00,0.0006
1990.00,0.0004
1989.00,0.0002
1988.00,0.0000
1987.00,-0.0000
1986.00,-0.0000
1985.00,0.0000
1984.00,0.0001
1983.00,0.0002
1982.00,0.0002
1981.00,0.0001
1980.00,-0.0000
1979.00,-0.0003
1978.00,-0.0005
1977.00,-0.0007
1976.00,-0.0006
1975.00,-0.0003
1974.00,0.0001
1973.00,0.0002
1972.00,0.0000
1971.00,-0.0003
1970.00,-0.0004
1969.00,-0.0002
1968.00,-0.0001
1967.00,-0.0002
1966.00,-0.0004
1965.00,-0.0006
1964.00,-0.0005
1963.00,-0.0004
1962.00,-0.0003
1961.00,-0.0002
1960.00,-0.0001
1959.00,0.0000
1958.00,0.0001
1957.00,0.0001
1956.00,0.0000
1955.00,-0.0000
1954.00,0.0000
1953.00,0.0001
1952.00,0.0000
1951.00,-0.0002
1950.00,-0.0004
1949.00,-0.0005
1948.00,-0.0004
1947.00,-0.0002
1946.00,-0.0001
1945.00,-0.0002
1944.00,-0.0004
1943.00,-0.0006
1942.00,-0.0007
1941.00,-0.0008
1940.00,-0.0008
1939.00,-0.0008
1938.00,-0.0008
1937.00,-0.0008
1936.00,-0.0008
1935.00,-0.0009
1934.00,-0.0010
1933.00,-0.0011
1932.00,-0.0010
1931.00,-0.0008
1930.00,-0.0005
1929.00,-0.0003
1928.00,-0.0001
1927.00,-0.0000
1926.00,-0.0000
1925.00,-0.0001
1924.00,-0.0001
1923.00,-0.0002
1922.00,-0.0002
1921.00,-0.0003
1920.00,-0.0003
1919.00,-0.0005
1918.00,-0.0007
1917.00,-0.0008
1916.00,-0.0007
1915.00,-0.0006
1914.00,-0.0006
1913.00,-0.0005
1912.00,-0.0005
1911.00,-0.0005
1910.00,-0.0005
1909.00,-0.0006
1908.00,-0.0007
1907.00,-0.0007
1906.00,-0.0007
1905.00,-0.0006
1904.00,-0.0005
1903.00,-0.0004
1902.00,-0.0004
1901.00,-0.0005
1900.00,-0.0005
1899.00,-0.0005
1898.00,-0.0004
1897.00,-0.0005
1896.00,-0.0007
1895.00,-0.0009
1894.00,-0.0010
1893.00,-0.0008
1892.00,-0.0006
1891.00,-0.0005
1890.00,-0.0005
1889.00,-0.0006
1888.00,-0.0007
1887.00,-0.0007
1886.00,-0.0007
1885.00,-0.0007
1884.00,-0.0007
1883.00,-0.0007
1882.00,-0.0007
1881.00,-0.0007
1880.00,-0.0007
1879.00,-0.0008
1878.00,-0.0009
1877.00,-0.0009
1876.00,-0.0009
1875.00,-0.0008
1874.00,-0.0007
1873.00,-0.0005
1872.00,-0.0003
1871.00,-0.0002
1870.00,-0.0003
1869.00,-0.0005
1868.00,-0.0007
1867.00,-0.0008
1866.00,-0.0008
1865.00,-0.0007
1864.00,-0.0007
1863.00,-0.0008
1862.00,-0.0009
1861.00,-0.0010
1860.00,-0.0011
1859.00,-0.0011
1858.00,-0.0011
1857.00,-0.0010
1856.00,-0.0009
1855.00,-0.0008
1854.00,-0.0008
1853.00,-0.0009
1852.00,-0.0009
1851.00,-0.0008
1850.00,-0.0008
1849.00,-0.0007
1848.00,-0.0007
1847.00,-0.0007
1846.00,-0.0007
1845.00,-0.0008
1844.00,-0.0009
1843.00,-0.0011
1842.00,-0.0011
1841.00,-0.0010
1840.00,-0.0009
1839.00,-0.0009
1838.00,-0.0009
1837.00,-0.0009
1836.00,-0.0009
1835.00,-0.0009
1834.00,-0.0008
1833.00,-0.0007
1832.00,-0.0006
1831.00,-0.0006
1830.00,-0.0007
1829.00,-0.0009
1828.00,-0.0009
1827.00,-0.0009
1826.00,-0.0008
1825.00,-0.0009
1824.00,-0.0009
1823.00,-0.0009
1822.00,-0.0008
1821.00,-0.0008
1820.00,-0.0009
1819.00,-0.0009
1818.00,-0.0010
1817.00,-0.0010
1816.00,-0.0010
1815.00,-0.0010
1814.00,-0.0009
1813.00,-0.0009
1812.00,-0.0009
1811.00,-0.0009
1810.00,-0.0009
1809.00,-0.0009
1808.00,-0.0008
1807.00,-0.0007
1806.00,-0.0007
1805.00,-0.0006
1804.00,-0.0005
1803.00,-0.0005
1802.00,-0.0005
1801.00,-0.0005
1800.00,-0.0006
1799.00,-0.0006
1798.00,-0.0005
1797.00,-0.0004
1796.00,-0.0003
1795.00,-0.0002
1794.00,-0.0002
1793.00,-0.0002
1792.00,-0.0002
1791.00,-0.0003
1790.00,-0.0003
1789.00,-0.0003
1788.00,-0.0001
1787.00,-0.0001
1786.00,-0.0000
1785.00,0.0000
1784.00,0.0000
1783.00,0.0001
1782.00,0.0001
1781.00,0.0001
1780.00,-0.0000
1779.00,-0.0000
1778.00,0.0001
1777.00,0.0003
1776.00,0.0005
1775.00,0.0007
1774.00,0.0008
1773.00,0.0008
1772.00,0.0006
1771.00,0.0004
1770.00,0.0004
1769.00,0.0005
1768.00,0.0005
1767.00,0.0005
1766.00,0.0007
1765.00,0.0009
1764.00,0.0010
1763.00,0.0010
1762.00,0.0009
1761.00,0.0008
1760.00,0.0009
1759.00,0.0010
1758.00,0.0010
1757.00,0.0010
1756.00,0.0011
1755.00,0.0013
1754.00,0.0015
1753.00,0.0017
1752.00,0.0017
1751.00,0.0016
1750.00,0.0015
1749.00,0.0015
1748.00,0.0016
1747.00,0.0017
1746.00,0.0018
1745.00,0.0020
1744.00,0.0021
1743.00,0.0022
1742.00,0.0024
1741.00,0.0025
1740.00,0.0027
1739.00,0.0028
1738.00,0.0029
1737.00,0.0031
1736.00,0.0034
1735.00,0.0034
1734.00,0.0034
1733.00,0.0033
1732.00,0.0034
1731.00,0.0036
1730.00,0.0037
1729.00,0.0039
1728.00,0.0041
1727.00,0.0043
1726.00,0.0045
1725.00,0.0048
1724.00,0.0050
1723.00,0.0051
1722.00,0.0053
1721.00,0.0055
1720.00,0.0057
1719.00,0.0058
1718.00,0.0058
1717.00,0.0059
1716.00,0.0059
1715.00,0.0061
1714.00,0.0062
1713.00,0.0064
1712.00,0.0066
1711.00,0.0067
1710.00,0.0068
1709.00,0.0070
1708.00,0.0072
1707.00,0.0073
1706.00,0.0075
1705.00,0.0076
1704.00,0.0079
1703.00,0.0082
1702.00,0.0085
1701.00,0.0088
1700.00,0.0091
1699.00,0.0094
1698.00,0.0097
1697.00,0.0100
1696.00,0.0102
1695.00,0.0103
1694.00,0.0106
1693.00,0.0109
1692.00,0.0112
1691.00,0.0115
1690.00,0.0118
1689.00,0.0122
1688.00,0.0125
1687.00,0.0127
1686.00,0.0129
1685.00,0.0133
1684.00,0.0137
1683.00,0.0140
1682.00,0.0143
1681.00,0.0145
1680.00,0.0147
1679.00,0.0150
1678.00,0.0155
1677.00,0.0159
1676.00,0.0165
1675.00,0.0170
1674.00,0.0173
1673.00,0.0176
1672.00,0.0178
1671.00,0.0181
1670.00,0.0185
1669.00,0.0189
1668.00,0.0192
1667.00,0.0195
1666.00,0.0197
1665.00,0.0200
1664.00,0.0203
1663.00,0.0207
1662.00,0.0211
1661.00,0.0214
1660.00,0.0218
1659.00,0.0221
1658.00,0.0223
1657.00,0.0224
1656.00,0.0223
1655.00,0.0222
1654.00,0.0225
1653.00,0.0231
1652.00,0.0235
1651.00,0.0238
1650.00,0.0238
1649.00,0.0237
1648.00,0.0238
1647.00,0.0241
1646.00,0.0243
1645.00,0.0244
1644.00,0.0245
1643.00,0.0245
1642.00,0.0245
1641.00,0.0245
1640.00,0.0245
1639.00,0.0245
1638.00,0.0245
1637.00,0.0248
1636.00,0.0254
1635.00,0.0258
1634.00,0.0259
1633.00,0.0258
1632.00,0.0256
1631.00,0.0255
1630.00,0.0255
1629.00,0.0255
1628.00,0.0256
1627.00,0.0257
1626.00,0.0258
1625.00,0.0258
1624.00,0.0259
1623.00,0.0258
1622.00,0.0257
1621.00,0.0255
1620.00,0.0253
1619.00,0.0250
1618.00,0.0247
1617.00,0.0245
1616.00,0.0242
1615.00,0.0239
1614.00,0.0236
1613.00,0.0232
1612.00,0.0228
1611.00,0.0224
1610.00,0.0221
1609.00,0.0217
1608.00,0.0213
1607.00,0.0210
1606.00,0.0207
1605.00,0.0204
1604.00,0.0201
1603.00,0.0198
1602.00,0.0194
1601.00,0.0191
1600.00,0.0188
1599.00,0.0186
1598.00,0.0184
1597.00,0.0183
1596.00,0.0182
1595.00,0.0181
1594.00,0.0179
1593.00,0.0178
1592.00,0.0176
1591.00,0.0174
1590.00,0.0173
1589.00,0.0173
1588.00,0.0173
1587.00,0.0174
1586.00,0.0174
1585.00,0.0174
1584.00,0.0174
1583.00,0.0174
1582.00,0.0175
1581.00,0.0175
1580.00,0.0176
1579.00,0.0177
1578.00,0.0179
1577.00,0.0182
1576.00,0.0183
1575.00,0.0183
1574.00,0.0183
1573.00,0.0184
1572.00,0.0185
1571.00,0.0186
1570.00,0.0189
1569.00,0.0192
1568.00,0.0194
1567.00,0.0196
1566.00,0.0198
1565.00,0.0199
1564.00,0.0200
1563.00,0.0200
1562.00,0.0200
1561.00,0.0199
1560.00,0.0204
1559.00,0.0215
1558.00,0.0220
1557.00,0.0220
1556.00,0.0220
1555.00,0.0221
1554.00,0.0222
1553.00,0.0224
1552.00,0.0225
1551.00,0.0226
1550.00,0.0226
1549.00,0.0226
1548.00,0.0226
1547.00,0.0226
1546.00,0.0227
1545.00,0.0228
1544.00,0.0228
1543.00,0.0228
1542.00,0.0229
1541.00,0.0230
1540.00,0.0231
1539.00,0.0231
1538.00,0.0231
1537.00,0.0231
1536.00,0.0231
1535.00,0.0231
1534.00,0.0232
1533.00,0.0234
1532.00,0.0235
1531.00,0.0236
1530.00,0.0236
1529.00,0.0237
1528.00,0.0237
1527.00,0.0238
1526.00,0.0238
1525.00,0.0238
1524.00,0.0238
1523.00,0.0239
1522.00,0.0242
1521.00,0.0245
1520.00,0.0247
1519.00,0.0247
1518.00,0.0247
1517.00,0.0248
1516.00,0.0248
1515.00,0.0248
1514.00,0.0248
1513.00,0.0247
1512.00,0.0245
1511.00,0.0244
1510.00,0.0241
1509.00,0.0240
1508.00,0.0240
1507.00,0.0240
1506.00,0.0238
1505.00,0.0236
1504.00,0.0234
1503.00,0.0230
1502.00,0.0226
1501.00,0.0222
1500.00,0.0219
1499.00,0.0217
1498.00,0.0215
1497.00,0.0213
1496.00,0.0210
1495.00,0.0206
1494.00,0.0202
1493.00,0.0198
1492.00,0.0194
1491.00,0.0191
1490.00,0.0188
1489.00,0.0184
1488.00,0.0180
1487.00,0.0177
1486.00,0.0174
1485.00,0.0171
1484.00,0.0169
1483.00,0.0167
1482.00,0.0164
1481.00,0.0162
1480.00,0.0160
1479.00,0.0158
1478.00,0.0156
1477.00,0.0155
1476.00,0.0154
1475.00,0.0153
1474.00,0.0153
1473.00,0.0153
1472.00,0.0153
1471.00,0.0153
1470.00,0.0154
1469.00,0.0155
1468.00,0.0155
1467.00,0.0155
1466.00,0.0155
1465.00,0.0154
1464.00,0.0154
1463.00,0.0154
1462.00,0.0154
1461.00,0.0154
1460.00,0.0154
1459.00,0.0155
1458.00,0.0158
1457.00,0.0160
1456.00,0.0161
1455.00,0.0162
1454.00,0.0162
1453.00,0.0163
1452.00,0.0164
1451.00,0.0165
1450.00,0.0166
1449.00,0.0168
1448.00,0.0170
1447.00,0.0171
1446.00,0.0172
1445.00,0.0173
1444.00,0.0172
1443.00,0.0172
1442.00,0.0172
1441.00,0.0172
1440.00,0.0173
1439.00,0.0174
1438.00,0.0174
1437.00,0.0175
1436.00,0.0175
1435.00,0.0175
1434.00,0.0174
1433.00,0.0172
1432.00,0.0171
1431.00,0.0171
1430.00,0.0169
1429.00,0.0168
1428.00,0.0167
1427.00,0.0167
1426.00,0.0166
1425.00,0.0166
1424.00,0.0166
1423.00,0.0166
1422.00,0.0166
1421.00,0.0166
1420.00,0.0166
1419.00,0.0167
1418.00,0.0167
1417.00,0.0168
1416.00,0.0168
1415.00,0.0168
1414.00,0.0166
1413.00,0.0165
1412.00,0.0164
1411.00,0.0163
1410.00,0.0162
1409.00,0.0162
1408.00,0.0161
1407.00,0.0161
1406.00,0.0160
1405.00,0.0159
1404.00,0.0157
1403.00,0.0157
1402.00,0.0156
1401.00,0.0155
1400.00,0.0154
1399.00,0.0153
1398.00,0.0153
1397.00,0.0153
1396.00,0.0152
1395.00,0.0152
1394.00,0.0151
1393.00,0.0151
1392.00,0.0151
1391.00,0.0151
1390.00,0.0152
1389.00,0.0153
1388.00,0.0154
1387.00,0.0156
1386.00,0.0157
1385.00,0.0158
1384.00,0.0160
1383.00,0.0162
1382.00,0.0166
1381.00,0.0169
1380.00,0.0172
1379.00,0.0175
1378.00,0.0177
1377.00,0.0179
1376.00,0.0180
1375.00,0.0181
1374.00,0.0182
1373.00,0.0182
1372.00,0.0181
1371.00,0.0181
1370.00,0.0180
1369.00,0.0179
1368.00,0.0177
1367.00,0.0176
1366.00,0.0174
1365.00,0.0172
1364.00,0.0170
1363.00,0.0168
1362.00,0.0167
1361.00,0.0166
1360.00,0.0165
1359.00,0.0164
1358.00,0.0163
1357.00,0.0162
1356.00,0.0161
1355.00,0.0161
1354.00,0.0160
1353.00,0.0159
1352.00,0.0157
1351.00,0.0156
1350.00,0.0154
1349.00,0.0153
1348.00,0.0152
1347.00,0.0152
1346.00,0.0152
1345.00,0.0151
1344.00,0.0150
1343.00,0.0150
1342.00,0.0150
1341.00,0.0151
1340.00,0.0151
1339.00,0.0152
1338.00,0.0152
1337.00,0.0152
1336.00,0.0152
1335.00,0.0153
1334.00,0.0154
1333.00,0.0155
1332.00,0.0156
1331.00,0.0158
1330.00,0.0159
1329.00,0.0160
1328.00,0.0162
1327.00,0.0163
1326.00,0.0164
1325.00,0.0165
1324.00,0.0167
1323.00,0.0169
1322.00,0.0171
1321.00,0.0173
1320.00,0.0174
1319.00,0.0175
1318.00,0.0175
1317.00,0.0175
1316.00,0.0175
1315.00,0.0175
1314.00,0.0177
1313.00,0.0179
1312.00,0.0181
1311.00,0.0182
1310.00,0.0183
1309.00,0.0184
1308.00,0.0184
1307.00,0.0184
1306.00,0.0184
1305.00,0.0184
1304.00,0.0185
1303.00,0.0186
1302.00,0.0187
1301.00,0.0186
1300.00,0.0186
1299.00,0.0186
1298.00,0.0185
1297.00,0.0185
1296.00,0.0185
1295.00,0.0185
1294.00,0.0185
1293.00,0.0186
1292.00,0.0186
1291.00,0.0186
1290.00,0.0186
1289.00,0.0186
1288.00,0.0185
1287.00,0.0185
1286.00,0.0184
1285.00,0.0184
1284.00,0.0184
1283.00,0.0184
1282.00,0.0184
1281.00,0.0183
1280.00,0.0182
1279.00,0.0181
1278.00,0.0180
1277.00,0.0179
1276.00,0.0179
1275.00,0.0179
1274.00,0.0179
1273.00,0.0179
1272.00,0.0178
1271.00,0.0178
1270.00,0.0178
1269.00,0.0178
1268.00,0.0179
1267.00,0.0180
1266.00,0.0181
1265.00,0.0182
1264.00,0.0183
1263.00,0.0182
1262.00,0.0182
1261.00,0.0182
1260.00,0.0182
1259.00,0.0183
1258.00,0.0183
1257.00,0.0182
1256.00,0.0181
1255.00,0.0180
1254.00,0.0180
1253.00,0.0181
1252.00,0.0181
1251.00,0.0181
1250.00,0.0180
1249.00,0.0179
1248.00,0.0179
1247.00,0.0179
1246.00,0.0180
1245.00,0.0180
1244.00,0.0180
1243.00,0.0179
1242.00,0.0179
1241.00,0.0178
1240.00,0.0178
1239.00,0.0178
1238.00,0.0178
1237.00,0.0179
1236.00,0.0179
1235.00,0.0179
1234.00,0.0180
1233.00,0.0180
1232.00,0.0180
1231.00,0.0179
1230.00,0.0179
1229.00,0.0178
1228.00,0.0178
1227.00,0.0178
1226.00,0.0178
1225.00,0.0177
1224.00,0.0176
1223.00,0.0174
1222.00,0.0174
1221.00,0.0173
1220.00,0.0173
1219.00,0.0173
1218.00,0.0172
1217.00,0.0171
1216.00,0.0171
1215.00,0.0170
1214.00,0.0168
1213.00,0.0167
1212.00,0.0168
1211.00,0.0169
1210.00,0.0171
1209.00,0.0171
1208.00,0.0172
1207.00,0.0171
1206.00,0.0170
1205.00,0.0170
1204.00,0.0170
1203.00,0.0171
1202.00,0.0172
1201.00,0.0172
1200.00,0.0172
1199.00,0.0172
1198.00,0.0171
1197.00,0.0170
1196.00,0.0168
1195.00,0.0167
1194.00,0.0165
1193.00,0.0163
1192.00,0.0162
1191.00,0.0161
1190.00,0.0159
1189.00,0.0157
1188.00,0.0156
1187.00,0.0154
1186.00,0.0153
1185.00,0.0152
1184.00,0.0151
1183.00,0.0150
1182.00,0.0148
1181.00,0.0147
1180.00,0.0146
1179.00,0.0145
1178.00,0.0145
1177.00,0.0145
1176.00,0.0145
1175.00,0.0145
1174.00,0.0144
1173.00,0.0144
1172.00,0.0144
1171.00,0.0144
1170.00,0.0143
1169.00,0.0144
1168.00,0.0144
1167.00,0.0145
1166.00,0.0146
1165.00,0.0147
1164.00,0.0148
1163.00,0.0149
1162.00,0.0150
1161.00,0.0151
1160.00,0.0151
1159.00,0.0151
1158.00,0.0151
1157.00,0.0152
1156.00,0.0153
1155.00,0.0155
1154.00,0.0156
1153.00,0.0156
1152.00,0.0154
1151.00,0.0151
1150.00,0.0148
1149.00,0.0145
1148.00,0.0143
1147.00,0.0141
1146.00,0.0140
1145.00,0.0139
1144.00,0.0139
1143.00,0.0139
1142.00,0.0139
1141.00,0.0139
1140.00,0.0138
1139.00,0.0137
1138.00,0.0136
1137.00,0.0135
1136.00,0.0136
1135.00,0.0138
1134.00,0.0140
1133.00,0.0142
1132.00,0.0143
1131.00,0.0144
1130.00,0.0146
1129.00,0.0150
1128.00,0.0154
1127.00,0.0157
1126.00,0.0158
1125.00,0.0160
1124.00,0.0162
1123.00,0.0167
1122.00,0.0173
1121.00,0.0178
1120.00,0.0181
1119.00,0.0183
1118.00,0.0184
1117.00,0.0186
1116.00,0.0188
1115.00,0.0190
1114.00,0.0192
1113.00,0.0192
1112.00,0.0190
1111.00,0.0189
1110.00,0.0189
1109.00,0.0188
1108.00,0.0188
1107.00,0.0186
1106.00,0.0184
1105.00,0.0181
1104.00,0.0180
1103.00,0.0180
1102.00,0.0179
1101.00,0.0178
1100.00,0.0177
1099.00,0.0175
1098.00,0.0174
1097.00,0.0173
1096.00,0.0172
1095.00,0.0171
1094.00,0.0171
1093.00,0.0172
1092.00,0.0173
1091.00,0.0174
1090.00,0.0173
1089.00,0.0172
1088.00,0.0171
1087.00,0.0173
1086.00,0.0176
1085.00,0.0180
1084.00,0.0184
1083.00,0.0187
1082.00,0.0191
1081.00,0.0195
1080.00,0.0200
1079.00,0.0206
1078.00,0.0212
1077.00,0.0218
1076.00,0.0221
1075.00,0.0221
1074.00,0.0220
1073.00,0.0220
1072.00,0.0220
1071.00,0.0222
1070.00,0.0224
1069.00,0.0226
1068.00,0.0227
1067.00,0.0230
1066.00,0.0233
1065.00,0.0236
1064.00,0.0239
1063.00,0.0241
1062.00,0.0242
1061.00,0.0240
1060.00,0.0238
1059.00,0.0236
1058.00,0.0236
1057.00,0.0237
1056.00,0.0238
1055.00,0.0238
1054.00,0.0238
1053.00,0.0237
1052.00,0.0236
1051.00,0.0235
1050.00,0.0234
1049.00,0.0233
1048.00,0.0233
1047.00,0.0233
1046.00,0.0232
1045.00,0.0233
1044.00,0.0233
1043.00,0.0233
1042.00,0.0232
1041.00,0.0231
1040.00,0.0232
1039.00,0.0236
1038.00,0.0240
1037.00,0.0244
1036.00,0.0248
1035.00,0.0250
1034.00,0.0252
1033.00,0.0254
1032.00,0.0256
1031.00,0.0259
1030.00,0.0260
1029.00,0.0261
1028.00,0.0261
1027.00,0.0261
1026.00,0.0262
1025.00,0.0262
1024.00,0.0263
1023.00,0.0262
1022.00,0.0262
1021.00,0.0262
1020.00,0.0262
1019.00,0.0262
1018.00,0.0262
1017.00,0.0263
1016.00,0.0265
1015.00,0.0268
1014.00,0.0270
1013.00,0.0271
1012.00,0.0270
1011.00,0.0269
1010.00,0.0269
1009.00,0.0268
1008.00,0.0266
1007.00,0.0263
1006.00,0.0260
1005.00,0.0257
1004.00,0.0254
1003.00,0.0252
1002.00,0.0249
1001.00,0.0246
1000.00,0.0242
999.00,0.0237
998.00,0.0233
997.00,0.0229
996.00,0.0227
995.00,0.0225
994.00,0.0222
993.00,0.0217
992.00,0.0213
991.00,0.0209
990.00,0.0205
989.00,0.0203
988.00,0.0200
987.00,0.0199
986.00,0.0197
985.00,0.0194
984.00,0.0191
983.00,0.0187
982.00,0.0183
981.00,0.0180
980.00,0.0179
979.00,0.0176
978.00,0.0173
977.00,0.0170
976.00,0.0166
975.00,0.0163
974.00,0.0162
973.00,0.0162
972.00,0.0161
971.00,0.0159
970.00,0.0156
969.00,0.0154
968.00,0.0152
967.00,0.0150
966.00,0.0148
965.00,0.0146
964.00,0.0145
963.00,0.0145
962.00,0.0145
961.00,0.0146
960.00,0.0146
959.00,0.0147
958.00,0.0148
957.00,0.0150
956.00,0.0152
955.00,0.0153
954.00,0.0154
953.00,0.0154
952.00,0.0154
951.00,0.0155
950.00,0.0155
949.00,0.0154
948.00,0.0151
947.00,0.0147
946.00,0.0144
945.00,0.0142
944.00,0.0140
943.00,0.0138
942.00,0.0136
941.00,0.0134
940.00,0.0132
939.00,0.0131
938.00,0.0130
937.00,0.0129
936.00,0.0126
935.00,0.0124
934.00,0.0124
933.00,0.0125
932.00,0.0127
931.00,0.0129
930.00,0.0129
929.00,0.0129
928.00,0.0129
927.00,0.0129
926.00,0.0130
925.00,0.0130
924.00,0.0130
923.00,0.0130
922.00,0.0129
921.00,0.0128
920.00,0.0128
919.00,0.0127
918.00,0.0126
917.00,0.0127
916.00,0.0128
915.00,0.0130
914.00,0.0130
913.00,0.0129
912.00,0.0127
911.00,0.0126
910.00,0.0124
909.00,0.0122
908.00,0.0120
907.00,0.0120
906.00,0.0122
905.00,0.0125
904.00,0.0129
903.00,0.0134
902.00,0.0136
901.00,0.0137
900.00,0.0136
899.00,0.0136
898.00,0.0137
897.00,0.0138
896.00,0.0138
895.00,0.0139
894.00,0.0138
893.00,0.0137
892.00,0.0136
891.00,0.0135
890.00,0.0136
889.00,0.0137
888.00,0.0138
887.00,0.0136
886.00,0.0133
885.00,0.0130
884.00,0.0130
883.00,0.0133
882.00,0.0135
881.00,0.0136
880.00,0.0135
879.00,0.0132
878.00,0.0128
877.00,0.0125
876.00,0.0122
875.00,0.0121
874.00,0.0121
873.00,0.0121
872.00,0.0120
871.00,0.0120
870.00,0.0121
869.00,0.0121
868.00,0.0121
867.00,0.0120
866.00,0.0120
865.00,0.0121
864.00,0.0123
863.00,0.0124
862.00,0.0124
861.00,0.0125
860.00,0.0125
859.00,0.0125
858.00,0.0123
857.00,0.0122
856.00,0.0121
855.00,0.0121
854.00,0.0122
853.00,0.0123
852.00,0.0124
851.00,0.0124
850.00,0.0125
849.00,0.0126
848.00,0.0128
847.00,0.0130
846.00,0.0132
845.00,0.0134
844.00,0.0135
843.00,0.0135
842.00,0.0132
841.00,0.0128
840.00,0.0125
839.00,0.0123
838.00,0.0123
837.00,0.0124
836.00,0.0125
835.00,0.0126
834.00,0.0125
833.00,0.0125
832.00,0.0125
831.00,0.0127
830.00,0.0128
829.00,0.0129
828.00,0.0130
827.00,0.0133
826.00,0.0136
825.00,0.0138
824.00,0.0139
823.00,0.0138
822.00,0.0136
821.00,0.0136
820.00,0.0137
819.00,0.0139
818.00,0.0140
817.00,0.0137
816.00,0.0133
815.00,0.0131
814.00,0.0132
813.00,0.0134
812.00,0.0137
811.00,0.0137
810.00,0.0137
809.00,0.0137
808.00,0.0138
807.00,0.0138
806.00,0.0138
805.00,0.0137
804.00,0.0136
803.00,0.0136
802.00,0.0138
801.00,0.0141
800.00,0.0144
799.00,0.0146
798.00,0.0146
797.00,0.0144
796.00,0.0143
795.00,0.0143
794.00,0.0143
793.00,0.0144
792.00,0.0146
791.00,0.0150
790.00,0.0154
789.00,0.0155
788.00,0.0155
787.00,0.0154
786.00,0.0155
785.00,0.0156
784.00,0.0158
783.00,0.0159
782.00,0.0160
781.00,0.0159
780.00,0.0158
779.00,0.0157
778.00,0.0158
777.00,0.0160
776.00,0.0163
775.00,0.0163
774.00,0.0162
773.00,0.0161
772.00,0.0160
771.00,0.0161
770.00,0.0162
769.00,0.0164
768.00,0.0164
767.00,0.0165
766.00,0.0164
765.00,0.0165
764.00,0.0166
763.00,0.0166
762.00,0.0165
761.00,0.0164
760.00,0.0164
759.00,0.0167
758.00,0.0171
757.00,0.0175
756.00,0.0178
755.00,0.0179
754.00,0.0179
753.00,0.0179
752.00,0.0180
751.00,0.0181
750.00,0.0183
749.00,0.0184
748.00,0.0185
747.00,0.0186
746.00,0.0187
745.00,0.0185
744.00,0.0183
743.00,0.0182
742.00,0.0182
741.00,0.0182
740.00,0.0181
739.00,0.0179
738.00,0.0178
737.00,0.0177
736.00,0.0177
735.00,0.0176
734.00,0.0176
733.00,0.0176
732.00,0.0177
731.00,0.0177
730.00,0.0179
729.00,0.0182
728.00,0.0186
727.00,0.0190
726.00,0.0194
725.00,0.0194
724.00,0.0192
723.00,0.0189
722.00,0.0187
721.00,0.0187
720.00,0.0188
719.00,0.0190
718.00,0.0191
717.00,0.0193
716.00,0.0193
715.00,0.0193
714.00,0.0193
713.00,0.0194
712.00,0.0196
711.00,0.0198
710.00,0.0199
709.00,0.0199
708.00,0.0200
707.00,0.0202
706.00,0.0204
705.00,0.0208
704.00,0.0211
703.00,0.0214
702.00,0.0215
701.00,0.0214
700.00,0.0213
699.00,0.0215
698.00,0.0217
697.00,0.0218
696.00,0.0215
695.00,0.0213
694.00,0.0213
693.00,0.0216
692.00,0.0220
691.00,0.0224
690.00,0.0227
689.00,0.0229
688.00,0.0228
687.00,0.0226
686.00,0.0222
685.00,0.0218
684.00,0.0215
683.00,0.0213
682.00,0.0210
681.00,0.0208
680.00,0.0208
679.00,0.0209
678.00,0.0212
677.00,0.0216
676.00,0.0220
675.00,0.0222
674.00,0.0221
673.00,0.0220
672.00,0.0220
671.00,0.0221
670.00,0.0225
669.00,0.0232
668.00,0.0241
667.00,0.0246
666.00,0.0245
665.00,0.0241
664.00,0.0236
663.00,0.0229
662.00,0.0221
661.00,0.0214
660.00,0.0210
659.00,0.0209
658.00,0.0212
657.00,0.0217
656.00,0.0220
655.00,0.0219
654.00,0.0216
653.00,0.0216
652.00,0.0202
651.00,0.0203
650.00,0.0208
