Created as New Dataset,
cm-1,A
4000.00,0.0076
3999.00,0.0076
3998.00,0.0076
3997.00,0.0076
3996.00,0.0076
3995.00,0.0076
3994.00,0.0077
3993.00,0.0077
3992.00,0.0077
3991.00,0.0076
3990.00,0.0076
3989.00,0.0075
3988.00,0.0075
3987.00,0.0075
3986.00,0.0075
3985.00,0.0075
3984.00,0.0075
3983.00,0.0075
3982.00,0.0075
3981.00,0.0075
3980.00,0.0075
3979.00,0.0075
3978.00,0.0075
3977.00,0.0076
3976.00,0.0076
3975.00,0.0076
3974.00,0.0076
3973.00,0.0077
3972.00,0.0076
3971.00,0.0076
3970.00,0.0075
3969.00,0.0075
3968.00,0.0074
3967.00,0.0074
3966.00,0.0074
3965.00,0.0074
3964.00,0.0075
3963.00,0.0075
3962.00,0.0076
3961.00,0.0076
3960.00,0.0076
3959.00,0.0076
3958.00,0.0075
3957.00,0.0075
3956.00,0.0074
3955.00,0.0074
3954.00,0.0075
3953.00,0.0076
3952.00,0.0077
3951.00,0.0077
3950.00,0.0078
3949.00,0.0078
3948.00,0.0078
3947.00,0.0078
3946.00,0.0078
3945.00,0.0078
3944.00,0.0078
3943.00,0.0077
3942.00,0.0077
3941.00,0.0077
3940.00,0.0077
3939.00,0.0076
3938.00,0.0075
3937.00,0.0075
3936.00,0.0075
3935.00,0.0076
3934.00,0.0077
3933.00,0.0077
3932.00,0.0078
3931.00,0.0078
3930.00,0.0078
3929.00,0.0078
3928.00,0.0078
3927.00,0.0078
3926.00,0.0077
3925.00,0.0077
3924.00,0.0077
3923.00,0.0078
3922.00,0.0078
3921.00,0.0078
3920.00,0.0078
3919.00,0.0078
3918.00,0.0078
3917.00,0.0078
3916.00,0.0077
3915.00,0.0076
3914.00,0.0075
3913.00,0.0074
3912.00,0.0073
3911.00,0.0073
3910.00,0.0073
3909.00,0.0074
3908.00,0.0076
3907.00,0.0078
3906.00,0.0079
3905.00,0.0079
3904.00,0.0081
3903.00,0.0083
3902.00,0.0085
3901.00,0.0086
3900.00,0.0085
3899.00,0.0082
3898.00,0.0080
3897.00,0.0079
3896.00,0.0078
3895.00,0.0078
3894.00,0.0078
3893.00,0.0077
3892.00,0.0076
3891.00,0.0075
3890.00,0.0076
3889.00,0.0078
3888.00,0.0080
3887.00,0.0080
3886.00,0.0077
3885.00,0.0077
3884.00,0.0080
3883.00,0.0083
3882.00,0.0083
3881.00,0.0080
3880.00,0.0077
3879.00,0.0076
3878.00,0.0078
3877.00,0.0080
3876.00,0.0079
3875.00,0.0078
3874.00,0.0077
3873.00,0.0079
3872.00,0.0081
3871.00,0.0081
3870.00,0.0079
3869.00,0.0078
3868.00,0.0081
3867.00,0.0083
3866.00,0.0082
3865.00,0.0080
3864.00,0.0078
3863.00,0.0078
3862.00,0.0079
3861.00,0.0078
3860.00,0.0076
3859.00,0.0075
3858.00,0.0075
3857.00,0.0077
3856.00,0.0079
3855.00,0.0079
3854.00,0.0078
3853.00,0.0078
3852.00,0.0080
3851.00,0.0081
3850.00,0.0080
3849.00,0.0078
3848.00,0.0075
3847.00,0.0074
3846.00,0.0073
3845.00,0.0073
3844.00,0.0073
3843.00,0.0074
3842.00,0.0076
3841.00,0.0078
3840.00,0.0078
3839.00,0.0078
3838.00,0.0078
3837.00,0.0078
3836.00,0.0078
3835.00,0.0079
3834.00,0.0078
3833.00,0.0077
3832.00,0.0075
3831.00,0.0074
3830.00,0.0074
3829.00,0.0074
3828.00,0.0074
3827.00,0.0073
3826.00,0.0072
3825.00,0.0074
3824.00,0.0077
3823.00,0.0078
3822.00,0.0075
3821.00,0.0073
3820.00,0.0074
3819.00,0.0077
3818.00,0.0078
3817.00,0.0075
3816.00,0.0071
3815.00,0.0070
3814.00,0.0071
3813.00,0.0071
3812.00,0.0070
3811.00,0.0068
3810.00,0.0068
3809.00,0.0068
3808.00,0.0068
3807.00,0.0067
3806.00,0.0068
3805.00,0.0071
3804.00,0.0075
3803.00,0.0075
3802.00,0.0073
3801.00,0.0072
3800.00,0.0074
3799.00,0.0076
3798.00,0.0075
3797.00,0.0073
3796.00,0.0070
3795.00,0.0069
3794.00,0.0069
3793.00,0.0069
3792.00,0.0068
3791.00,0.0066
3790.00,0.0066
3789.00,0.0066
3788.00,0.0066
3787.00,0.0067
3786.00,0.0066
3785.00,0.0066
3784.00,0.0067
3783.00,0.0068
3782.00,0.0069
3781.00,0.0069
3780.00,0.0067
3779.00,0.0066
3778.00,0.0066
3777.00,0.0067
3776.00,0.0067
3775.00,0.0066
3774.00,0.0065
3773.00,0.0065
3772.00,0.0066
3771.00,0.0066
3770.00,0.0066
3769.00,0.0067
3768.00,0.0069
3767.00,0.0070
3766.00,0.0069
3765.00,0.0067
3764.00,0.0067
3763.00,0.0069
3762.00,0.0070
3761.00,0.0070
3760.00,0.0069
3759.00,0.0068
3758.00,0.0069
3757.00,0.0069
3756.00,0.0069
3755.00,0.0070
3754.00,0.0070
3753.00,0.0070
3752.00,0.0069
3751.00,0.0071
3750.00,0.0073
3749.00,0.0074
3748.00,0.0076
3747.00,0.0079
3746.00,0.0078
3745.00,0.0074
3744.00,0.0070
3743.00,0.0071
3742.00,0.0073
3741.00,0.0073
3740.00,0.0072
3739.00,0.0071
3738.00,0.0072
3737.00,0.0073
3736.00,0.0075
3735.00,0.0076
3734.00,0.0077
3733.00,0.0076
3732.00,0.0073
3731.00,0.0070
3730.00,0.0069
3729.00,0.0069
3728.00,0.0069
3727.00,0.0068
3726.00,0.0068
3725.00,0.0069
3724.00,0.0070
3723.00,0.0070
3722.00,0.0069
3721.00,0.0068
3720.00,0.0068
3719.00,0.0067
3718.00,0.0065
3717.00,0.0065
3716.00,0.0065
3715.00,0.0066
3714.00,0.0067
3713.00,0.0067
3712.00,0.0068
3711.00,0.0070
3710.00,0.0071
3709.00,0.0071
3708.00,0.0069
3707.00,0.0068
3706.00,0.0066
3705.00,0.0066
3704.00,0.0066
3703.00,0.0066
3702.00,0.0066
3701.00,0.0066
3700.00,0.0067
3699.00,0.0068
3698.00,0.0068
3697.00,0.0067
3696.00,0.0066
3695.00,0.0067
3694.00,0.0069
3693.00,0.0070
3692.00,0.0072
3691.00,0.0073
3690.00,0.0074
3689.00,0.0074
3688.00,0.0074
3687.00,0.0073
3686.00,0.0072
3685.00,0.0071
3684.00,0.0070
3683.00,0.0069
3682.00,0.0069
3681.00,0.0069
3680.00,0.0069
3679.00,0.0071
3678.00,0.0075
3677.00,0.0078
3676.00,0.0078
3675.00,0.0079
3674.00,0.0081
3673.00,0.0084
3672.00,0.0085
3671.00,0.0083
3670.00,0.0080
3669.00,0.0080
3668.00,0.0081
3667.00,0.0081
3666.00,0.0079
3665.00,0.0077
3664.00,0.0076
3663.00,0.0076
3662.00,0.0076
3661.00,0.0076
3660.00,0.0078
3659.00,0.0080
3658.00,0.0082
3657.00,0.0083
3656.00,0.0085
3655.00,0.0087
3654.00,0.0091
3653.00,0.0095
3652.00,0.0096
3651.00,0.0097
3650.00,0.0100
3649.00,0.0106
3648.00,0.0110
3647.00,0.0110
3646.00,0.0107
3645.00,0.0104
3644.00,0.0102
3643.00,0.0099
3642.00,0.0098
3641.00,0.0098
3640.00,0.0098
3639.00,0.0098
3638.00,0.0100
3637.00,0.0101
3636.00,0.0103
3635.00,0.0104
3634.00,0.0104
3633.00,0.0105
3632.00,0.0108
3631.00,0.0111
3630.00,0.0114
3629.00,0.0116
3628.00,0.0118
3627.00,0.0120
3626.00,0.0119
3625.00,0.0117
3624.00,0.0116
3623.00,0.0116
3622.00,0.0118
3621.00,0.0121
3620.00,0.0124
3619.00,0.0127
3618.00,0.0129
3617.00,0.0130
3616.00,0.0130
3615.00,0.0129
3614.00,0.0128
3613.00,0.0128
3612.00,0.0128
3611.00,0.0130
3610.00,0.0131
3609.00,0.0131
3608.00,0.0131
3607.00,0.0131
3606.00,0.0131
3605.00,0.0131
3604.00,0.0131
3603.00,0.0130
3602.00,0.0130
3601.00,0.0130
3600.00,0.0131
3599.00,0.0132
3598.00,0.0134
3597.00,0.0135
3596.00,0.0136
3595.00,0.0137
3594.00,0.0137
3593.00,0.0137
3592.00,0.0137
3591.00,0.0138
3590.00,0.0140
3589.00,0.0142
3588.00,0.0144
3587.00,0.0146
3586.00,0.0147
3585.00,0.0147
3584.00,0.0146
3583.00,0.0145
3582.00,0.0144
3581.00,0.0144
3580.00,0.0144
3579.00,0.0144
3578.00,0.0144
3577.00,0.0144
3576.00,0.0143
3575.00,0.0143
3574.00,0.0144
3573.00,0.0144
3572.00,0.0145
3571.00,0.0147
3570.00,0.0149
3569.00,0.0152
3568.00,0.0155
3567.00,0.0159
3566.00,0.0161
3565.00,0.0162
3564.00,0.0160
3563.00,0.0158
3562.00,0.0157
3561.00,0.0156
3560.00,0.0155
3559.00,0.0154
3558.00,0.0154
3557.00,0.0153
3556.00,0.0153
3555.00,0.0153
3554.00,0.0154
3553.00,0.0155
3552.00,0.0156
3551.00,0.0157
3550.00,0.0158
3549.00,0.0159
3548.00,0.0160
3547.00,0.0162
3546.00,0.0163
3545.00,0.0164
3544.00,0.0164
3543.00,0.0163
3542.00,0.0162
3541.00,0.0161
3540.00,0.0161
3539.00,0.0161
3538.00,0.0162
3537.00,0.0163
3536.00,0.0164
3535.00,0.0164
3534.00,0.0165
3533.00,0.0164
3532.00,0.0164
3531.00,0.0165
3530.00,0.0166
3529.00,0.0167
3528.00,0.0168
3527.00,0.0170
3526.00,0.0170
3525.00,0.0171
3524.00,0.0171
3523.00,0.0171
3522.00,0.0171
3521.00,0.0171
3520.00,0.0171
3519.00,0.0170
3518.00,0.0170
3517.00,0.0171
3516.00,0.0171
3515.00,0.0172
3514.00,0.0172
3513.00,0.0173
3512.00,0.0174
3511.00,0.0175
3510.00,0.0176
3509.00,0.0177
3508.00,0.0177
3507.00,0.0177
3506.00,0.0177
3505.00,0.0177
3504.00,0.0177
3503.00,0.0178
3502.00,0.0179
3501.00,0.0180
3500.00,0.0180
3499.00,0.0180
3498.00,0.0179
3497.00,0.0179
3496.00,0.0180
3495.00,0.0180
3494.00,0.0181
3493.00,0.0181
3492.00,0.0181
3491.00,0.0181
3490.00,0.0180
3489.00,0.0180
3488.00,0.0180
3487.00,0.0181
3486.00,0.0182
3485.00,0.0183
3484.00,0.0184
3483.00,0.0185
3482.00,0.0186
3481.00,0.0186
3480.00,0.0186
3479.00,0.0186
3478.00,0.0186
3477.00,0.0186
3476.00,0.0186
3475.00,0.0187
3474.00,0.0187
3473.00,0.0188
3472.00,0.0188
3471.00,0.0189
3470.00,0.0189
3469.00,0.0189
3468.00,0.0189
3467.00,0.0189
3466.00,0.0190
3465.00,0.0190
3464.00,0.0191
3463.00,0.0191
3462.00,0.0192
3461.00,0.0192
3460.00,0.0192
3459.00,0.0192
3458.00,0.0192
3457.00,0.0192
3456.00,0.0192
3455.00,0.0193
3454.00,0.0194
3453.00,0.0194
3452.00,0.0195
3451.00,0.0195
3450.00,0.0194
3449.00,0.0194
3448.00,0.0195
3447.00,0.0196
3446.00,0.0196
3445.00,0.0197
3444.00,0.0197
3443.00,0.0197
3442.00,0.0197
3441.00,0.0197
3440.00,0.0197
3439.00,0.0197
3438.00,0.0197
3437.00,0.0197
3436.00,0.0198
3435.00,0.0198
3434.00,0.0199
3433.00,0.0199
3432.00,0.0200
3431.00,0.0200
3430.00,0.0200
3429.00,0.0200
3428.00,0.0200
3427.00,0.0200
3426.00,0.0200
3425.00,0.0200
3424.00,0.0201
3423.00,0.0201
3422.00,0.0202
3421.00,0.0202
3420.00,0.0202
3419.00,0.0203
3418.00,0.0203
3417.00,0.0203
3416.00,0.0202
3415.00,0.0202
3414.00,0.0203
3413.00,0.0203
3412.00,0.0204
3411.00,0.0204
3410.00,0.0205
3409.00,0.0205
3408.00,0.0205
3407.00,0.0205
3406.00,0.0206
3405.00,0.0206
3404.00,0.0207
3403.00,0.0207
3402.00,0.0207
3401.00,0.0207
3400.00,0.0207
3399.00,0.0206
3398.00,0.0206
3397.00,0.0207
3396.00,0.0207
3395.00,0.0208
3394.00,0.0208
3393.00,0.0208
3392.00,0.0208
3391.00,0.0208
3390.00,0.0208
3389.00,0.0208
3388.00,0.0208
3387.00,0.0209
3386.00,0.0209
3385.00,0.0210
3384.00,0.0210
3383.00,0.0210
3382.00,0.0209
3381.00,0.0208
3380.00,0.0208
3379.00,0.0208
3378.00,0.0209
3377.00,0.0209
3376.00,0.0210
3375.00,0.0210
3374.00,0.0211
3373.00,0.0211
3372.00,0.0211
3371.00,0.0211
3370.00,0.0211
3369.00,0.0211
3368.00,0.0211
3367.00,0.0211
3366.00,0.0212
3365.00,0.0212
3364.00,0.0212
3363.00,0.0212
3362.00,0.0212
3361.00,0.0212
3360.00,0.0212
3359.00,0.0212
3358.00,0.0212
3357.00,0.0213
3356.00,0.0213
3355.00,0.0213
3354.00,0.0213
3353.00,0.0213
3352.00,0.0212
3351.00,0.0212
3350.00,0.0212
3349.00,0.0212
3348.00,0.0212
3347.00,0.0212
3346.00,0.0212
3345.00,0.0213
3344.00,0.0213
3343.00,0.0214
3342.00,0.0214
3341.00,0.0214
3340.00,0.0214
3339.00,0.0214
3338.00,0.0214
3337.00,0.0215
3336.00,0.0215
3335.00,0.0215
3334.00,0.0215
3333.00,0.0215
3332.00,0.0215
3331.00,0.0215
3330.00,0.0215
3329.00,0.0215
3328.00,0.0215
3327.00,0.0216
3326.00,0.0216
3325.00,0.0216
3324.00,0.0216
3323.00,0.0216
3322.00,0.0216
3321.00,0.0216
3320.00,0.0215
3319.00,0.0215
3318.00,0.0215
3317.00,0.0215
3316.00,0.0215
3315.00,0.0215
3314.00,0.0215
3313.00,0.0215
3312.00,0.0215
3311.00,0.0216
3310.00,0.0216
3309.00,0.0216
3308.00,0.0217
3307.00,0.0217
3306.00,0.0218
3305.00,0.0218
3304.00,0.0218
3303.00,0.0218
3302.00,0.0217
3301.00,0.0216
3300.00,0.0216
3299.00,0.0216
3298.00,0.0217
3297.00,0.0217
3296.00,0.0218
3295.00,0.0218
3294.00,0.0217
3293.00,0.0217
3292.00,0.0216
3291.00,0.0217
3290.00,0.0217
3289.00,0.0217
3288.00,0.0217
3287.00,0.0217
3286.00,0.0217
3285.00,0.0217
3284.00,0.0217
3283.00,0.0217
3282.00,0.0217
3281.00,0.0218
3280.00,0.0218
3279.00,0.0218
3278.00,0.0218
3277.00,0.0218
3276.00,0.0218
3275.00,0.0219
3274.00,0.0219
3273.00,0.0220
3272.00,0.0220
3271.00,0.0219
3270.00,0.0219
3269.00,0.0218
3268.00,0.0218
3267.00,0.0218
3266.00,0.0219
3265.00,0.0219
3264.00,0.0220
3263.00,0.0220
3262.00,0.0220
3261.00,0.0220
3260.00,0.0220
3259.00,0.0220
3258.00,0.0220
3257.00,0.0220
3256.00,0.0220
3255.00,0.0220
3254.00,0.0220
3253.00,0.0219
3252.00,0.0219
3251.00,0.0219
3250.00,0.0220
3249.00,0.0220
3248.00,0.0221
3247.00,0.0222
3246.00,0.0222
3245.00,0.0222
3244.00,0.0222
3243.00,0.0222
3242.00,0.0221
3241.00,0.0221
3240.00,0.0221
3239.00,0.0221
3238.00,0.0221
3237.00,0.0221
3236.00,0.0222
3235.00,0.0222
3234.00,0.0222
3233.00,0.0223
3232.00,0.0223
3231.00,0.0224
3230.00,0.0224
3229.00,0.0224
3228.00,0.0224
3227.00,0.0223
3226.00,0.0223
3225.00,0.0223
3224.00,0.0223
3223.00,0.0223
3222.00,0.0223
3221.00,0.0223
3220.00,0.0223
3219.00,0.0223
3218.00,0.0222
3217.00,0.0222
3216.00,0.0222
3215.00,0.0221
3214.00,0.0222
3213.00,0.0222
3212.00,0.0223
3211.00,0.0223
3210.00,0.0224
3209.00,0.0224
3208.00,0.0224
3207.00,0.0224
3206.00,0.0224
3205.00,0.0224
3204.00,0.0224
3203.00,0.0224
3202.00,0.0224
3201.00,0.0224
3200.00,0.0224
3199.00,0.0224
3198.00,0.0224
3197.00,0.0224
3196.00,0.0224
3195.00,0.0223
3194.00,0.0223
3193.00,0.0223
3192.00,0.0223
3191.00,0.0223
3190.00,0.0223
3189.00,0.0223
3188.00,0.0223
3187.00,0.0223
3186.00,0.0223
3185.00,0.0223
3184.00,0.0224
3183.00,0.0224
3182.00,0.0224
3181.00,0.0224
3180.00,0.0223
3179.00,0.0223
3178.00,0.0223
3177.00,0.0223
3176.00,0.0223
3175.00,0.0223
3174.00,0.0223
3173.00,0.0223
3172.00,0.0223
3171.00,0.0223
3170.00,0.0223
3169.00,0.0223
3168.00,0.0222
3167.00,0.0222
3166.00,0.0221
3165.00,0.0221
3164.00,0.0221
3163.00,0.0221
3162.00,0.0221
3161.00,0.0222
3160.00,0.0222
3159.00,0.0222
3158.00,0.0223
3157.00,0.0223
3156.00,0.0222
3155.00,0.0222
3154.00,0.0222
3153.00,0.0222
3152.00,0.0222
3151.00,0.0221
3150.00,0.0221
3149.00,0.0221
3148.00,0.0221
3147.00,0.0222
3146.00,0.0222
3145.00,0.0222
3144.00,0.0222
3143.00,0.0222
3142.00,0.0222
3141.00,0.0221
3140.00,0.0221
3139.00,0.0221
3138.00,0.0220
3137.00,0.0220
3136.00,0.0220
3135.00,0.0220
3134.00,0.0220
3133.00,0.0220
3132.00,0.0220
3131.00,0.0220
3130.00,0.0221
3129.00,0.0221
3128.00,0.0220
3127.00,0.0220
3126.00,0.0221
3125.00,0.0221
3124.00,0.0221
3123.00,0.0221
3122.00,0.0221
3121.00,0.0221
3120.00,0.0221
3119.00,0.0221
3118.00,0.0221
3117.00,0.0221
3116.00,0.0221
3115.00,0.0221
3114.00,0.0221
3113.00,0.0221
3112.00,0.0220
3111.00,0.0220
3110.00,0.0219
3109.00,0.0219
3108.00,0.0219
3107.00,0.0219
3106.00,0.0219
3105.00,0.0219
3104.00,0.0219
3103.00,0.0219
3102.00,0.0219
3101.00,0.0219
3100.00,0.0219
3099.00,0.0219
3098.00,0.0219
3097.00,0.0220
3096.00,0.0220
3095.00,0.0220
3094.00,0.0220
3093.00,0.0219
3092.00,0.0219
3091.00,0.0218
3090.00,0.0218
3089.00,0.0218
3088.00,0.0219
3087.00,0.0219
3086.00,0.0219
3085.00,0.0219
3084.00,0.0219
3083.00,0.0218
3082.00,0.0219
3081.00,0.0219
3080.00,0.0219
3079.00,0.0219
3078.00,0.0219
3077.00,0.0219
3076.00,0.0218
3075.00,0.0218
3074.00,0.0218
3073.00,0.0218
3072.00,0.0218
3071.00,0.0218
3070.00,0.0218
3069.00,0.0217
3068.00,0.0217
3067.00,0.0217
3066.00,0.0217
3065.00,0.0218
3064.00,0.0218
3063.00,0.0218
3062.00,0.0218
3061.00,0.0218
3060.00,0.0217
3059.00,0.0217
3058.00,0.0217
3057.00,0.0217
3056.00,0.0217
3055.00,0.0217
3054.00,0.0217
3053.00,0.0217
3052.00,0.0217
3051.00,0.0216
3050.00,0.0216
3049.00,0.0215
3048.00,0.0215
3047.00,0.0215
3046.00,0.0215
3045.00,0.0215
3044.00,0.0215
3043.00,0.0215
3042.00,0.0215
3041.00,0.0215
3040.00,0.0215
3039.00,0.0214
3038.00,0.0214
3037.00,0.0215
3036.00,0.0214
3035.00,0.0214
3034.00,0.0214
3033.00,0.0214
3032.00,0.0214
3031.00,0.0214
3030.00,0.0214
3029.00,0.0213
3028.00,0.0213
3027.00,0.0212
3026.00,0.0212
3025.00,0.0211
3024.00,0.0211
3023.00,0.0211
3022.00,0.0211
3021.00,0.0211
3020.00,0.0211
3019.00,0.0211
3018.00,0.0211
3017.00,0.0211
3016.00,0.0211
3015.00,0.0211
3014.00,0.0212
3013.00,0.0212
3012.00,0.0212
3011.00,0.0213
3010.00,0.0213
3009.00,0.0213
3008.00,0.0212
3007.00,0.0212
3006.00,0.0212
3005.00,0.0212
3004.00,0.0212
3003.00,0.0212
3002.00,0.0212
3001.00,0.0212
3000.00,0.0212
2999.00,0.0211
2998.00,0.0211
2997.00,0.0211
2996.00,0.0211
2995.00,0.0211
2994.00,0.0211
2993.00,0.0211
2992.00,0.0211
2991.00,0.0211
2990.00,0.0211
2989.00,0.0211
2988.00,0.0211
2987.00,0.0211
2986.00,0.0212
2985.00,0.0212
2984.00,0.0213
2983.00,0.0213
2982.00,0.0213
2981.00,0.0212
2980.00,0.0212
2979.00,0.0211
2978.00,0.0211
2977.00,0.0211
2976.00,0.0211
2975.00,0.0210
2974.00,0.0210
2973.00,0.0209
2972.00,0.0209
2971.00,0.0208
2970.00,0.0207
2969.00,0.0206
2968.00,0.0205
2967.00,0.0204
2966.00,0.0204
2965.00,0.0203
2964.00,0.0203
2963.00,0.0202
2962.00,0.0202
2961.00,0.0201
2960.00,0.0201
2959.00,0.0200
2958.00,0.0200
2957.00,0.0199
2956.00,0.0199
2955.00,0.0199
2954.00,0.0199
2953.00,0.0199
2952.00,0.0199
2951.00,0.0199
2950.00,0.0199
2949.00,0.0198
2948.00,0.0198
2947.00,0.0198
2946.00,0.0198
2945.00,0.0198
2944.00,0.0198
2943.00,0.0198
2942.00,0.0197
2941.00,0.0196
2940.00,0.0196
2939.00,0.0195
2938.00,0.0195
2937.00,0.0194
2936.00,0.0193
2935.00,0.0193
2934.00,0.0192
2933.00,0.0192
2932.00,0.0191
2931.00,0.0190
2930.00,0.0189
2929.00,0.0188
2928.00,0.0187
2927.00,0.0186
2926.00,0.0185
2925.00,0.0185
2924.00,0.0185
2923.00,0.0185
2922.00,0.0185
2921.00,0.0185
2920.00,0.0185
2919.00,0.0184
2918.00,0.0183
2917.00,0.0182
2916.00,0.0183
2915.00,0.0184
2914.00,0.0186
2913.00,0.0188
2912.00,0.0189
2911.00,0.0189
2910.00,0.0190
2909.00,0.0190
2908.00,0.0190
2907.00,0.0190
2906.00,0.0191
2905.00,0.0191
2904.00,0.0191
2903.00,0.0191
2902.00,0.0191
2901.00,0.0191
2900.00,0.0192
2899.00,0.0192
2898.00,0.0191
2897.00,0.0191
2896.00,0.0191
2895.00,0.0191
2894.00,0.0191
2893.00,0.0191
2892.00,0.0191
2891.00,0.0192
2890.00,0.0192
2889.00,0.0192
2888.00,0.0192
2887.00,0.0192
2886.00,0.0192
2885.00,0.0192
2884.00,0.0192
2883.00,0.0192
2882.00,0.0192
2881.00,0.0192
2880.00,0.0192
2879.00,0.0191
2878.00,0.0191
2877.00,0.0190
2876.00,0.0190
2875.00,0.0189
2874.00,0.0188
2873.00,0.0187
2872.00,0.0186
2871.00,0.0186
2870.00,0.0186
2869.00,0.0186
2868.00,0.0185
2867.00,0.0185
2866.00,0.0184
2865.00,0.0184
2864.00,0.0184
2863.00,0.0184
2862.00,0.0184
2861.00,0.0184
2860.00,0.0183
2859.00,0.0182
2858.00,0.0182
2857.00,0.0181
2856.00,0.0181
2855.00,0.0180
2854.00,0.0180
2853.00,0.0180
2852.00,0.0180
2851.00,0.0180
2850.00,0.0179
2849.00,0.0179
2848.00,0.0179
2847.00,0.0179
2846.00,0.0179
2845.00,0.0180
2844.00,0.0180
2843.00,0.0181
2842.00,0.0181
2841.00,0.0182
2840.00,0.0182
2839.00,0.0183
2838.00,0.0183
2837.00,0.0183
2836.00,0.0183
2835.00,0.0183
2834.00,0.0183
2833.00,0.0182
2832.00,0.0182
2831.00,0.0182
2830.00,0.0182
2829.00,0.0182
2828.00,0.0182
2827.00,0.0182
2826.00,0.0182
2825.00,0.0182
2824.00,0.0182
2823.00,0.0181
2822.00,0.0181
2821.00,0.0181
2820.00,0.0181
2819.00,0.0181
2818.00,0.0181
2817.00,0.0181
2816.00,0.0180
2815.00,0.0180
2814.00,0.0180
2813.00,0.0180
2812.00,0.0180
2811.00,0.0179
2810.00,0.0179
2809.00,0.0179
2808.00,0.0178
2807.00,0.0178
2806.00,0.0178
2805.00,0.0178
2804.00,0.0178
2803.00,0.0178
2802.00,0.0178
2801.00,0.0178
2800.00,0.0177
2799.00,0.0177
2798.00,0.0177
2797.00,0.0176
2796.00,0.0176
2795.00,0.0176
2794.00,0.0176
2793.00,0.0176
2792.00,0.0176
2791.00,0.0176
2790.00,0.0176
2789.00,0.0176
2788.00,0.0176
2787.00,0.0176
2786.00,0.0175
2785.00,0.0175
2784.00,0.0174
2783.00,0.0174
2782.00,0.0174
2781.00,0.0174
2780.00,0.0174
2779.00,0.0173
2778.00,0.0173
2777.00,0.0174
2776.00,0.0174
2775.00,0.0174
2774.00,0.0174
2773.00,0.0174
2772.00,0.0173
2771.00,0.0173
2770.00,0.0172
2769.00,0.0172
2768.00,0.0172
2767.00,0.0171
2766.00,0.0171
2765.00,0.0171
2764.00,0.0171
2763.00,0.0171
2762.00,0.0171
2761.00,0.0171
2760.00,0.0170
2759.00,0.0170
2758.00,0.0170
2757.00,0.0170
2756.00,0.0170
2755.00,0.0170
2754.00,0.0170
2753.00,0.0170
2752.00,0.0170
2751.00,0.0170
2750.00,0.0169
2749.00,0.0169
2748.00,0.0169
2747.00,0.0169
2746.00,0.0168
2745.00,0.0168
2744.00,0.0167
2743.00,0.0167
2742.00,0.0167
2741.00,0.0167
2740.00,0.0167
2739.00,0.0167
2738.00,0.0167
2737.00,0.0166
2736.00,0.0166
2735.00,0.0166
2734.00,0.0165
2733.00,0.0165
2732.00,0.0165
2731.00,0.0165
2730.00,0.0165
2729.00,0.0165
2728.00,0.0165
2727.00,0.0165
2726.00,0.0165
2725.00,0.0165
2724.00,0.0165
2723.00,0.0165
2722.00,0.0165
2721.00,0.0164
2720.00,0.0164
2719.00,0.0164
2718.00,0.0163
2717.00,0.0163
2716.00,0.0163
2715.00,0.0163
2714.00,0.0163
2713.00,0.0163
2712.00,0.0163
2711.00,0.0163
2710.00,0.0163
2709.00,0.0163
2708.00,0.0163
2707.00,0.0162
2706.00,0.0162
2705.00,0.0162
2704.00,0.0162
2703.00,0.0162
2702.00,0.0162
2701.00,0.0161
2700.00,0.0161
2699.00,0.0161
2698.00,0.0161
2697.00,0.0160
2696.00,0.0161
2695.00,0.0161
2694.00,0.0161
2693.00,0.0161
2692.00,0.0160
2691.00,0.0160
2690.00,0.0160
2689.00,0.0160
2688.00,0.0160
2687.00,0.0159
2686.00,0.0159
2685.00,0.0159
2684.00,0.0159
2683.00,0.0159
2682.00,0.0159
2681.00,0.0159
2680.00,0.0159
2679.00,0.0159
2678.00,0.0159
2677.00,0.0159
2676.00,0.0159
2675.00,0.0159
2674.00,0.0158
2673.00,0.0158
2672.00,0.0158
2671.00,0.0157
2670.00,0.0157
2669.00,0.0157
2668.00,0.0157
2667.00,0.0157
2666.00,0.0157
2665.00,0.0157
2664.00,0.0157
2663.00,0.0157
2662.00,0.0157
2661.00,0.0157
2660.00,0.0157
2659.00,0.0158
2658.00,0.0158
2657.00,0.0158
2656.00,0.0157
2655.00,0.0157
2654.00,0.0157
2653.00,0.0157
2652.00,0.0157
2651.00,0.0157
2650.00,0.0157
2649.00,0.0157
2648.00,0.0158
2647.00,0.0158
2646.00,0.0158
2645.00,0.0158
2644.00,0.0158
2643.00,0.0158
2642.00,0.0158
2641.00,0.0158
2640.00,0.0158
2639.00,0.0158
2638.00,0.0157
2637.00,0.0157
2636.00,0.0157
2635.00,0.0157
2634.00,0.0157
2633.00,0.0157
2632.00,0.0156
2631.00,0.0156
2630.00,0.0156
2629.00,0.0156
2628.00,0.0157
2627.00,0.0157
2626.00,0.0157
2625.00,0.0156
2624.00,0.0156
2623.00,0.0156
2622.00,0.0156
2621.00,0.0156
2620.00,0.0156
2619.00,0.0156
2618.00,0.0156
2617.00,0.0157
2616.00,0.0157
2615.00,0.0157
2614.00,0.0157
2613.00,0.0156
2612.00,0.0156
2611.00,0.0155
2610.00,0.0155
2609.00,0.0155
2608.00,0.0155
2607.00,0.0155
2606.00,0.0155
2605.00,0.0155
2604.00,0.0155
2603.00,0.0155
2602.00,0.0156
2601.00,0.0156
2600.00,0.0156
2599.00,0.0156
2598.00,0.0155
2597.00,0.0155
2596.00,0.0155
2595.00,0.0154
2594.00,0.0154
2593.00,0.0155
2592.00,0.0155
2591.00,0.0156
2590.00,0.0156
2589.00,0.0155
2588.00,0.0155
2587.00,0.0154
2586.00,0.0153
2585.00,0.0153
2584.00,0.0153
2583.00,0.0154
2582.00,0.0154
2581.00,0.0154
2580.00,0.0154
2579.00,0.0155
2578.00,0.0155
2577.00,0.0155
2576.00,0.0155
2575.00,0.0155
2574.00,0.0155
2573.00,0.0154
2572.00,0.0153
2571.00,0.0153
2570.00,0.0153
2569.00,0.0153
2568.00,0.0153
2567.00,0.0154
2566.00,0.0154
2565.00,0.0154
2564.00,0.0154
2563.00,0.0154
2562.00,0.0154
2561.00,0.0154
2560.00,0.0153
2559.00,0.0153
2558.00,0.0153
2557.00,0.0153
2556.00,0.0154
2555.00,0.0154
2554.00,0.0154
2553.00,0.0154
2552.00,0.0154
2551.00,0.0154
2550.00,0.0154
2549.00,0.0153
2548.00,0.0153
2547.00,0.0153
2546.00,0.0152
2545.00,0.0152
2544.00,0.0152
2543.00,0.0153
2542.00,0.0154
2541.00,0.0154
2540.00,0.0154
2539.00,0.0154
2538.00,0.0154
2537.00,0.0154
2536.00,0.0154
2535.00,0.0153
2534.00,0.0153
2533.00,0.0153
2532.00,0.0152
2531.00,0.0152
2530.00,0.0152
2529.00,0.0153
2528.00,0.0153
2527.00,0.0153
2526.00,0.0152
2525.00,0.0152
2524.00,0.0152
2523.00,0.0152
2522.00,0.0152
2521.00,0.0152
2520.00,0.0152
2519.00,0.0152
2518.00,0.0151
2517.00,0.0151
2516.00,0.0150
2515.00,0.0150
2514.00,0.0150
2513.00,0.0151
2512.00,0.0151
2511.00,0.0152
2510.00,0.0152
2509.00,0.0151
2508.00,0.0150
2507.00,0.0150
2506.00,0.0150
2505.00,0.0150
2504.00,0.0150
2503.00,0.0150
2502.00,0.0150
2501.00,0.0150
2500.00,0.0150
2499.00,0.0150
2498.00,0.0149
2497.00,0.0149
2496.00,0.0149
2495.00,0.0150
2494.00,0.0150
2493.00,0.0150
2492.00,0.0150
2491.00,0.0150
2490.00,0.0150
2489.00,0.0149
2488.00,0.0149
2487.00,0.0149
2486.00,0.0149
2485.00,0.0149
2484.00,0.0149
2483.00,0.0149
2482.00,0.0149
2481.00,0.0149
2480.00,0.0149
2479.00,0.0149
2478.00,0.0149
2477.00,0.0148
2476.00,0.0148
2475.00,0.0148
2474.00,0.0148
2473.00,0.0148
2472.00,0.0148
2471.00,0.0149
2470.00,0.0149
2469.00,0.0148
2468.00,0.0148
2467.00,0.0147
2466.00,0.0147
2465.00,0.0147
2464.00,0.0147
2463.00,0.0146
2462.00,0.0146
2461.00,0.0146
2460.00,0.0146
2459.00,0.0147
2458.00,0.0147
2457.00,0.0147
2456.00,0.0146
2455.00,0.0145
2454.00,0.0145
2453.00,0.0146
2452.00,0.0147
2451.00,0.0147
2450.00,0.0147
2449.00,0.0147
2448.00,0.0147
2447.00,0.0146
2446.00,0.0145
2445.00,0.0145
2444.00,0.0145
2443.00,0.0144
2442.00,0.0144
2441.00,0.0145
2440.00,0.0145
2439.00,0.0145
2438.00,0.0144
2437.00,0.0144
2436.00,0.0143
2435.00,0.0143
2434.00,0.0143
2433.00,0.0143
2432.00,0.0143
2431.00,0.0144
2430.00,0.0144
2429.00,0.0143
2428.00,0.0143
2427.00,0.0143
2426.00,0.0143
2425.00,0.0143
2424.00,0.0142
2423.00,0.0142
2422.00,0.0142
2421.00,0.0142
2420.00,0.0141
2419.00,0.0141
2418.00,0.0141
2417.00,0.0141
2416.00,0.0141
2415.00,0.0141
2414.00,0.0141
2413.00,0.0141
2412.00,0.0141
2411.00,0.0141
2410.00,0.0141
2409.00,0.0141
2408.00,0.0140
2407.00,0.0140
2406.00,0.0140
2405.00,0.0140
2404.00,0.0140
2403.00,0.0140
2402.00,0.0140
2401.00,0.0139
2400.00,0.0139
2399.00,0.0138
2398.00,0.0138
2397.00,0.0137
2396.00,0.0137
2395.00,0.0137
2394.00,0.0138
2393.00,0.0138
2392.00,0.0138
2391.00,0.0138
2390.00,0.0137
2389.00,0.0137
2388.00,0.0136
2387.00,0.0135
2386.00,0.0134
2385.00,0.0133
2384.00,0.0132
2383.00,0.0132
2382.00,0.0131
2381.00,0.0130
2380.00,0.0130
2379.00,0.0129
2378.00,0.0129
2377.00,0.0129
2376.00,0.0130
2375.00,0.0131
2374.00,0.0132
2373.00,0.0133
2372.00,0.0134
2371.00,0.0133
2370.00,0.0133
2369.00,0.0132
2368.00,0.0132
2367.00,0.0133
2366.00,0.0133
2365.00,0.0132
2364.00,0.0131
2363.00,0.0130
2362.00,0.0130
2361.00,0.0132
2360.00,0.0134
2359.00,0.0135
2358.00,0.0137
2357.00,0.0138
2356.00,0.0140
2355.00,0.0140
2354.00,0.0138
2353.00,0.0135
2352.00,0.0133
2351.00,0.0133
2350.00,0.0133
2349.00,0.0132
2348.00,0.0129
2347.00,0.0126
2346.00,0.0125
2345.00,0.0127
2344.00,0.0130
2343.00,0.0132
2342.00,0.0134
2341.00,0.0134
2340.00,0.0134
2339.00,0.0134
2338.00,0.0134
2337.00,0.0133
2336.00,0.0133
2335.00,0.0133
2334.00,0.0133
2333.00,0.0134
2332.00,0.0134
2331.00,0.0134
2330.00,0.0134
2329.00,0.0135
2328.00,0.0136
2327.00,0.0137
2326.00,0.0138
2325.00,0.0138
2324.00,0.0137
2323.00,0.0137
2322.00,0.0137
2321.00,0.0136
2320.00,0.0135
2319.00,0.0135
2318.00,0.0135
2317.00,0.0135
2316.00,0.0134
2315.00,0.0134
2314.00,0.0133
2313.00,0.0133
2312.00,0.0133
2311.00,0.0132
2310.00,0.0132
2309.00,0.0131
2308.00,0.0130
2307.00,0.0131
2306.00,0.0131
2305.00,0.0131
2304.00,0.0131
2303.00,0.0130
2302.00,0.0130
2301.00,0.0129
2300.00,0.0129
2299.00,0.0128
2298.00,0.0128
2297.00,0.0128
2296.00,0.0128
2295.00,0.0128
2294.00,0.0127
2293.00,0.0127
2292.00,0.0128
2291.00,0.0128
2290.00,0.0128
2289.00,0.0128
2288.00,0.0128
2287.00,0.0128
2286.00,0.0128
2285.00,0.0128
2284.00,0.0128
2283.00,0.0127
2282.00,0.0126
2281.00,0.0126
2280.00,0.0126
2279.00,0.0126
2278.00,0.0127
2277.00,0.0127
2276.00,0.0128
2275.00,0.0128
2274.00,0.0128
2273.00,0.0128
2272.00,0.0128
2271.00,0.0127
2270.00,0.0126
2269.00,0.0126
2268.00,0.0126
2267.00,0.0127
2266.00,0.0127
2265.00,0.0127
2264.00,0.0127
2263.00,0.0126
2262.00,0.0125
2261.00,0.0125
2260.00,0.0124
2259.00,0.0125
2258.00,0.0125
2257.00,0.0126
2256.00,0.0125
2255.00,0.0124
2254.00,0.0123
2253.00,0.0123
2252.00,0.0122
2251.00,0.0122
2250.00,0.0122
2249.00,0.0122
2248.00,0.0122
2247.00,0.0122
2246.00,0.0122
2245.00,0.0121
2244.00,0.0121
2243.00,0.0121
2242.00,0.0122
2241.00,0.0122
2240.00,0.0123
2239.00,0.0122
2238.00,0.0122
2237.00,0.0122
2236.00,0.0121
2235.00,0.0121
2234.00,0.0120
2233.00,0.0120
2232.00,0.0120
2231.00,0.0121
2230.00,0.0121
2229.00,0.0122
2228.00,0.0123
2227.00,0.0124
2226.00,0.0124
2225.00,0.0124
2224.00,0.0123
2223.00,0.0122
2222.00,0.0121
2221.00,0.0121
2220.00,0.0121
2219.00,0.0121
2218.00,0.0122
2217.00,0.0123
2216.00,0.0123
2215.00,0.0124
2214.00,0.0124
2213.00,0.0124
2212.00,0.0124
2211.00,0.0123
2210.00,0.0121
2209.00,0.0120
2208.00,0.0119
2207.00,0.0119
2206.00,0.0120
2205.00,0.0121
2204.00,0.0123
2203.00,0.0123
2202.00,0.0122
2201.00,0.0120
2200.00,0.0120
2199.00,0.0121
2198.00,0.0122
2197.00,0.0123
2196.00,0.0124
2195.00,0.0124
2194.00,0.0123
2193.00,0.0121
2192.00,0.0118
2191.00,0.0117
2190.00,0.0118
2189.00,0.0119
2188.00,0.0120
2187.00,0.0120
2186.00,0.0120
2185.00,0.0120
2184.00,0.0120
2183.00,0.0120
2182.00,0.0120
2181.00,0.0120
2180.00,0.0119
2179.00,0.0118
2178.00,0.0118
2177.00,0.0117
2176.00,0.0118
2175.00,0.0119
2174.00,0.0120
2173.00,0.0121
2172.00,0.0121
2171.00,0.0121
2170.00,0.0120
2169.00,0.0119
2168.00,0.0119
2167.00,0.0120
2166.00,0.0121
2165.00,0.0122
2164.00,0.0123
2163.00,0.0124
2162.00,0.0124
2161.00,0.0122
2160.00,0.0118
2159.00,0.0113
2158.00,0.0110
2157.00,0.0110
2156.00,0.0111
2155.00,0.0113
2154.00,0.0114
2153.00,0.0114
2152.00,0.0113
2151.00,0.0112
2150.00,0.0111
2149.00,0.0111
2148.00,0.0111
2147.00,0.0109
2146.00,0.0108
2145.00,0.0107
2144.00,0.0106
2143.00,0.0106
2142.00,0.0106
2141.00,0.0106
2140.00,0.0107
2139.00,0.0107
2138.00,0.0107
2137.00,0.0107
2136.00,0.0106
2135.00,0.0105
2134.00,0.0105
2133.00,0.0105
2132.00,0.0104
2131.00,0.0104
2130.00,0.0103
2129.00,0.0103
2128.00,0.0103
2127.00,0.0102
2126.00,0.0101
2125.00,0.0101
2124.00,0.0102
2123.00,0.0103
2122.00,0.0105
2121.00,0.0106
2120.00,0.0107
2119.00,0.0108
2118.00,0.0108
2117.00,0.0109
2116.00,0.0109
2115.00,0.0108
2114.00,0.0108
2113.00,0.0106
2112.00,0.0104
2111.00,0.0103
2110.00,0.0102
2109.00,0.0102
2108.00,0.0103
2107.00,0.0103
2106.00,0.0103
2105.00,0.0103
2104.00,0.0103
2103.00,0.0103
2102.00,0.0103
2101.00,0.0102
2100.00,0.0102
2099.00,0.0103
2098.00,0.0104
2097.00,0.0104
2096.00,0.0103
2095.00,0.0101
2094.00,0.0100
2093.00,0.0100
2092.00,0.0101
2091.00,0.0102
2090.00,0.0103
2089.00,0.0104
2088.00,0.0104
2087.00,0.0103
2086.00,0.0103
2085.00,0.0102
2084.00,0.0101
2083.00,0.0100
2082.00,0.0099
2081.00,0.0099
2080.00,0.0099
2079.00,0.0099
2078.00,0.0099
2077.00,0.0100
2076.00,0.0101
2075.00,0.0101
2074.00,0.0100
2073.00,0.0099
2072.00,0.0098
2071.00,0.0098
2070.00,0.0099
2069.00,0.0100
2068.00,0.0100
2067.00,0.0100
2066.00,0.0101
2065.00,0.0101
2064.00,0.0100
2063.00,0.0100
2062.00,0.0100
2061.00,0.0099
2060.00,0.0099
2059.00,0.0099
2058.00,0.0098
2057.00,0.0098
2056.00,0.0098
2055.00,0.0098
2054.00,0.0099
2053.00,0.0099
2052.00,0.0100
2051.00,0.0100
2050.00,0.0100
2049.00,0.0100
2048.00,0.0100
2047.00,0.0100
2046.00,0.0100
2045.00,0.0100
2044.00,0.0099
2043.00,0.0098
2042.00,0.0098
2041.00,0.0100
2040.00,0.0102
2039.00,0.0103
2038.00,0.0103
2037.00,0.0102
2036.00,0.0100
2035.00,0.0099
2034.00,0.0098
2033.00,0.0098
2032.00,0.0097
2031.00,0.0097
2030.00,0.0096
2029.00,0.0096
2028.00,0.0096
2027.00,0.0095
2026.00,0.0095
2025.00,0.0095
2024.00,0.0095
2023.00,0.0095
2022.00,0.0095
2021.00,0.0096
2020.00,0.0098
2019.00,0.0099
2018.00,0.0097
2017.00,0.0095
2016.00,0.0093
2015.00,0.0092
2014.00,0.0093
2013.00,0.0093
2012.00,0.0092
2011.00,0.0091
2010.00,0.0090
2009.00,0.0089
2008.00,0.0088
2007.00,0.0088
2006.00,0.0088
2005.00,0.0088
2004.00,0.0089
2003.00,0.0090
2002.00,0.0091
2001.00,0.0091
2000.00,0.0092
1999.00,0.0092
1998.00,0.0093
1997.00,0.0094
1996.00,0.0094
1995.00,0.0095
1994.00,0.0095
1993.00,0.0094
1992.00,0.0093
1991.00,0.0092
1990.00,0.0091
1989.00,0.0092
1988.00,0.0091
1987.00,0.0090
1986.00,0.0089
1985.00,0.0089
1984.00,0.0091
1983.00,0.0093
1982.00,0.0096
1981.00,0.0097
1980.00,0.0097
1979.00,0.0095
1978.00,0.0093
1977.00,0.0093
1976.00,0.0093
1975.00,0.0092
1974.00,0.0091
1973.00,0.0089
1972.00,0.0089
1971.00,0.0090
1970.00,0.0091
1969.00,0.0092
1968.00,0.0091
1967.00,0.0089
1966.00,0.0088
1965.00,0.0086
1964.00,0.0086
1963.00,0.0086
1962.00,0.0086
1961.00,0.0086
1960.00,0.0085
1959.00,0.0085
1958.00,0.0084
1957.00,0.0083
1956.00,0.0081
1955.00,0.0079
1954.00,0.0078
1953.00,0.0079
1952.00,0.0079
1951.00,0.0079
1950.00,0.0079
1949.00,0.0078
1948.00,0.0078
1947.00,0.0078
1946.00,0.0079
1945.00,0.0080
1944.00,0.0079
1943.00,0.0078
1942.00,0.0077
1941.00,0.0077
1940.00,0.0077
1939.00,0.0078
1938.00,0.0078
1937.00,0.0078
1936.00,0.0079
1935.00,0.0078
1934.00,0.0077
1933.00,0.0077
1932.00,0.0076
1931.00,0.0077
1930.00,0.0077
1929.00,0.0077
1928.00,0.0076
1927.00,0.0076
1926.00,0.0076
1925.00,0.0078
1924.00,0.0078
1923.00,0.0077
1922.00,0.0076
1921.00,0.0076
1920.00,0.0076
1919.00,0.0076
1918.00,0.0074
1917.00,0.0072
1916.00,0.0072
1915.00,0.0071
1914.00,0.0071
1913.00,0.0071
1912.00,0.0071
1911.00,0.0071
1910.00,0.0072
1909.00,0.0072
1908.00,0.0071
1907.00,0.0070
1906.00,0.0069
1905.00,0.0069
1904.00,0.0068
1903.00,0.0068
1902.00,0.0067
1901.00,0.0067
1900.00,0.0066
1899.00,0.0066
1898.00,0.0066
1897.00,0.0067
1896.00,0.0067
1895.00,0.0067
1894.00,0.0066
1893.00,0.0067
1892.00,0.0066
1891.00,0.0065
1890.00,0.0064
1889.00,0.0063
1888.00,0.0062
1887.00,0.0062
1886.00,0.0063
1885.00,0.0064
1884.00,0.0064
1883.00,0.0064
1882.00,0.0063
1881.00,0.0063
1880.00,0.0062
1879.00,0.0061
1878.00,0.0060
1877.00,0.0060
1876.00,0.0060
1875.00,0.0060
1874.00,0.0060
1873.00,0.0062
1872.00,0.0064
1871.00,0.0065
1870.00,0.0063
1869.00,0.0060
1868.00,0.0058
1867.00,0.0057
1866.00,0.0058
1865.00,0.0058
1864.00,0.0058
1863.00,0.0057
1862.00,0.0056
1861.00,0.0056
1860.00,0.0056
1859.00,0.0055
1858.00,0.0054
1857.00,0.0054
1856.00,0.0054
1855.00,0.0054
1854.00,0.0054
1853.00,0.0054
1852.00,0.0053
1851.00,0.0053
1850.00,0.0053
1849.00,0.0053
1848.00,0.0054
1847.00,0.0055
1846.00,0.0056
1845.00,0.0054
1844.00,0.0050
1843.00,0.0048
1842.00,0.0049
1841.00,0.0050
1840.00,0.0051
1839.00,0.0051
1838.00,0.0050
1837.00,0.0050
1836.00,0.0049
1835.00,0.0049
1834.00,0.0050
1833.00,0.0052
1832.00,0.0054
1831.00,0.0053
1830.00,0.0051
1829.00,0.0049
1828.00,0.0050
1827.00,0.0051
1826.00,0.0051
1825.00,0.0049
1824.00,0.0048
1823.00,0.0047
1822.00,0.0047
1821.00,0.0047
1820.00,0.0047
1819.00,0.0047
1818.00,0.0047
1817.00,0.0047
1816.00,0.0048
1815.00,0.0048
1814.00,0.0048
1813.00,0.0049
1812.00,0.0049
1811.00,0.0048
1810.00,0.0047
1809.00,0.0047
1808.00,0.0047
1807.00,0.0048
1806.00,0.0049
1805.00,0.0050
1804.00,0.0052
1803.00,0.0053
1802.00,0.0054
1801.00,0.0054
1800.00,0.0054
1799.00,0.0054
1798.00,0.0054
1797.00,0.0055
1796.00,0.0057
1795.00,0.0059
1794.00,0.0060
1793.00,0.0060
1792.00,0.0059
1791.00,0.0059
1790.00,0.0059
1789.00,0.0061
1788.00,0.0063
1787.00,0.0064
1786.00,0.0064
1785.00,0.0065
1784.00,0.0067
1783.00,0.0069
1782.00,0.0071
1781.00,0.0072
1780.00,0.0074
1779.00,0.0075
1778.00,0.0077
1777.00,0.0079
1776.00,0.0082
1775.00,0.0085
1774.00,0.0087
1773.00,0.0087
1772.00,0.0086
1771.00,0.0086
1770.00,0.0087
1769.00,0.0088
1768.00,0.0089
1767.00,0.0089
1766.00,0.0091
1765.00,0.0094
1764.00,0.0097
1763.00,0.0098
1762.00,0.0098
1761.00,0.0098
1760.00,0.0100
1759.00,0.0102
1758.00,0.0104
1757.00,0.0104
1756.00,0.0104
1755.00,0.0105
1754.00,0.0107
1753.00,0.0108
1752.00,0.0109
1751.00,0.0110
1750.00,0.0112
1749.00,0.0114
1748.00,0.0117
1747.00,0.0118
1746.00,0.0120
1745.00,0.0122
1744.00,0.0124
1743.00,0.0127
1742.00,0.0129
1741.00,0.0131
1740.00,0.0131
1739.00,0.0131
1738.00,0.0134
1737.00,0.0138
1736.00,0.0141
1735.00,0.0140
1734.00,0.0140
1733.00,0.0142
1732.00,0.0146
1731.00,0.0150
1730.00,0.0153
1729.00,0.0155
1728.00,0.0156
1727.00,0.0158
1726.00,0.0160
1725.00,0.0162
1724.00,0.0165
1723.00,0.0167
1722.00,0.0170
1721.00,0.0173
1720.00,0.0176
1719.00,0.0176
1718.00,0.0175
1717.00,0.0177
1716.00,0.0179
1715.00,0.0181
1714.00,0.0182
1713.00,0.0183
1712.00,0.0184
1711.00,0.0184
1710.00,0.0185
1709.00,0.0187
1708.00,0.0189
1707.00,0.0191
1706.00,0.0193
1705.00,0.0194
1704.00,0.0196
1703.00,0.0198
1702.00,0.0200
1701.00,0.0198
1700.00,0.0196
1699.00,0.0195
1698.00,0.0197
1697.00,0.0199
1696.00,0.0198
1695.00,0.0195
1694.00,0.0194
1693.00,0.0196
1692.00,0.0197
1691.00,0.0198
1690.00,0.0197
1689.00,0.0198
1688.00,0.0200
1687.00,0.0202
1686.00,0.0202
1685.00,0.0200
1684.00,0.0200
1683.00,0.0201
1682.00,0.0202
1681.00,0.0203
1680.00,0.0203
1679.00,0.0204
1678.00,0.0205
1677.00,0.0206
1676.00,0.0205
1675.00,0.0205
1674.00,0.0206
1673.00,0.0208
1672.00,0.0210
1671.00,0.0211
1670.00,0.0212
1669.00,0.0213
1668.00,0.0213
1667.00,0.0214
1666.00,0.0215
1665.00,0.0216
1664.00,0.0216
1663.00,0.0217
1662.00,0.0218
1661.00,0.0219
1660.00,0.0219
1659.00,0.0220
1658.00,0.0221
1657.00,0.0224
1656.00,0.0227
1655.00,0.0230
1654.00,0.0231
1653.00,0.0234
1652.00,0.0234
1651.00,0.0234
1650.00,0.0236
1649.00,0.0239
1648.00,0.0239
1647.00,0.0241
1646.00,0.0243
1645.00,0.0244
1644.00,0.0244
1643.00,0.0245
1642.00,0.0247
1641.00,0.0248
1640.00,0.0250
1639.00,0.0252
1638.00,0.0254
1637.00,0.0257
1636.00,0.0262
1635.00,0.0265
1634.00,0.0266
1633.00,0.0266
1632.00,0.0267
1631.00,0.0268
1630.00,0.0269
1629.00,0.0272
1628.00,0.0274
1627.00,0.0277
1626.00,0.0279
1625.00,0.0281
1624.00,0.0283
1623.00,0.0285
1622.00,0.0287
1621.00,0.0288
1620.00,0.0288
1619.00,0.0289
1618.00,0.0290
1617.00,0.0292
1616.00,0.0294
1615.00,0.0296
1614.00,0.0297
1613.00,0.0298
1612.00,0.0299
1611.00,0.0300
1610.00,0.0302
1609.00,0.0304
1608.00,0.0306
1607.00,0.0308
1606.00,0.0309
1605.00,0.0309
1604.00,0.0310
1603.00,0.0312
1602.00,0.0313
1601.00,0.0315
1600.00,0.0316
1599.00,0.0317
1598.00,0.0317
1597.00,0.0318
1596.00,0.0319
1595.00,0.0321
1594.00,0.0322
1593.00,0.0322
1592.00,0.0323
1591.00,0.0323
1590.00,0.0324
1589.00,0.0325
1588.00,0.0326
1587.00,0.0326
1586.00,0.0326
1585.00,0.0326
1584.00,0.0326
1583.00,0.0327
1582.00,0.0328
1581.00,0.0328
1580.00,0.0328
1579.00,0.0329
1578.00,0.0329
1577.00,0.0330
1576.00,0.0332
1575.00,0.0333
1574.00,0.0333
1573.00,0.0332
1572.00,0.0332
1571.00,0.0331
1570.00,0.0332
1569.00,0.0333
1568.00,0.0333
1567.00,0.0332
1566.00,0.0331
1565.00,0.0331
1564.00,0.0330
1563.00,0.0330
1562.00,0.0330
1561.00,0.0328
1560.00,0.0326
1559.00,0.0333
1558.00,0.0338
1557.00,0.0333
1556.00,0.0329
1555.00,0.0326
1554.00,0.0324
1553.00,0.0322
1552.00,0.0320
1551.00,0.0319
1550.00,0.0318
1549.00,0.0317
1548.00,0.0315
1547.00,0.0312
1546.00,0.0310
1545.00,0.0309
1544.00,0.0310
1543.00,0.0310
1542.00,0.0308
1541.00,0.0305
1540.00,0.0306
1539.00,0.0305
1538.00,0.0301
1537.00,0.0299
1536.00,0.0298
1535.00,0.0297
1534.00,0.0297
1533.00,0.0297
1532.00,0.0295
1531.00,0.0293
1530.00,0.0290
1529.00,0.0289
1528.00,0.0288
1527.00,0.0287
1526.00,0.0286
1525.00,0.0285
1524.00,0.0284
1523.00,0.0283
1522.00,0.0281
1521.00,0.0281
1520.00,0.0280
1519.00,0.0280
1518.00,0.0279
1517.00,0.0278
1516.00,0.0276
1515.00,0.0273
1514.00,0.0270
1513.00,0.0267
1512.00,0.0266
1511.00,0.0266
1510.00,0.0267
1509.00,0.0269
1508.00,0.0270
1507.00,0.0271
1506.00,0.0268
1505.00,0.0263
1504.00,0.0259
1503.00,0.0258
1502.00,0.0257
1501.00,0.0255
1500.00,0.0254
1499.00,0.0253
1498.00,0.0251
1497.00,0.0251
1496.00,0.0252
1495.00,0.0253
1494.00,0.0254
1493.00,0.0254
1492.00,0.0255
1491.00,0.0256
1490.00,0.0258
1489.00,0.0260
1488.00,0.0261
1487.00,0.0259
1486.00,0.0257
1485.00,0.0256
1484.00,0.0255
1483.00,0.0255
1482.00,0.0255
1481.00,0.0255
1480.00,0.0255
1479.00,0.0255
1478.00,0.0255
1477.00,0.0256
1476.00,0.0257
1475.00,0.0258
1474.00,0.0258
1473.00,0.0258
1472.00,0.0259
1471.00,0.0259
1470.00,0.0258
1469.00,0.0258
1468.00,0.0258
1467.00,0.0259
1466.00,0.0260
1465.00,0.0261
1464.00,0.0262
1463.00,0.0262
1462.00,0.0262
1461.00,0.0263
1460.00,0.0263
1459.00,0.0263
1458.00,0.0263
1457.00,0.0265
1456.00,0.0267
1455.00,0.0268
1454.00,0.0268
1453.00,0.0269
1452.00,0.0270
1451.00,0.0271
1450.00,0.0272
1449.00,0.0274
1448.00,0.0276
1447.00,0.0278
1446.00,0.0278
1445.00,0.0278
1444.00,0.0278
1443.00,0.0279
1442.00,0.0279
1441.00,0.0280
1440.00,0.0280
1439.00,0.0281
1438.00,0.0281
1437.00,0.0282
1436.00,0.0285
1435.00,0.0286
1434.00,0.0287
1433.00,0.0287
1432.00,0.0288
1431.00,0.0289
1430.00,0.0290
1429.00,0.0290
1428.00,0.0291
1427.00,0.0291
1426.00,0.0290
1425.00,0.0291
1424.00,0.0292
1423.00,0.0293
1422.00,0.0294
1421.00,0.0293
1420.00,0.0293
1419.00,0.0296
1418.00,0.0298
1417.00,0.0299
1416.00,0.0299
1415.00,0.0298
1414.00,0.0298
1413.00,0.0298
1412.00,0.0298
1411.00,0.0299
1410.00,0.0299
1409.00,0.0299
1408.00,0.0300
1407.00,0.0300
1406.00,0.0301
1405.00,0.0302
1404.00,0.0303
1403.00,0.0304
1402.00,0.0304
1401.00,0.0304
1400.00,0.0305
1399.00,0.0308
1398.00,0.0309
1397.00,0.0310
1396.00,0.0312
1395.00,0.0313
1394.00,0.0314
1393.00,0.0313
1392.00,0.0312
1391.00,0.0312
1390.00,0.0312
1389.00,0.0312
1388.00,0.0313
1387.00,0.0315
1386.00,0.0316
1385.00,0.0317
1384.00,0.0317
1383.00,0.0316
1382.00,0.0316
1381.00,0.0316
1380.00,0.0316
1379.00,0.0317
1378.00,0.0317
1377.00,0.0318
1376.00,0.0319
1375.00,0.0320
1374.00,0.0321
1373.00,0.0322
1372.00,0.0321
1371.00,0.0320
1370.00,0.0320
1369.00,0.0320
1368.00,0.0320
1367.00,0.0319
1366.00,0.0318
1365.00,0.0318
1364.00,0.0318
1363.00,0.0320
1362.00,0.0322
1361.00,0.0322
1360.00,0.0322
1359.00,0.0321
1358.00,0.0320
1357.00,0.0319
1356.00,0.0318
1355.00,0.0318
1354.00,0.0317
1353.00,0.0317
1352.00,0.0316
1351.00,0.0315
1350.00,0.0315
1349.00,0.0315
1348.00,0.0315
1347.00,0.0315
1346.00,0.0315
1345.00,0.0315
1344.00,0.0314
1343.00,0.0314
1342.00,0.0313
1341.00,0.0314
1340.00,0.0315
1339.00,0.0315
1338.00,0.0316
1337.00,0.0315
1336.00,0.0314
1335.00,0.0313
1334.00,0.0312
1333.00,0.0312
1332.00,0.0311
1331.00,0.0311
1330.00,0.0311
1329.00,0.0310
1328.00,0.0310
1327.00,0.0309
1326.00,0.0308
1325.00,0.0308
1324.00,0.0308
1323.00,0.0308
1322.00,0.0307
1321.00,0.0307
1320.00,0.0307
1319.00,0.0307
1318.00,0.0308
1317.00,0.0309
1316.00,0.0309
1315.00,0.0309
1314.00,0.0309
1313.00,0.0309
1312.00,0.0309
1311.00,0.0309
1310.00,0.0308
1309.00,0.0308
1308.00,0.0308
1307.00,0.0308
1306.00,0.0308
1305.00,0.0308
1304.00,0.0308
1303.00,0.0309
1302.00,0.0309
1301.00,0.0309
1300.00,0.0309
1299.00,0.0310
1298.00,0.0310
1297.00,0.0310
1296.00,0.0310
1295.00,0.0311
1294.00,0.0311
1293.00,0.0311
1292.00,0.0311
1291.00,0.0312
1290.00,0.0313
1289.00,0.0314
1288.00,0.0315
1287.00,0.0315
1286.00,0.0315
1285.00,0.0315
1284.00,0.0315
1283.00,0.0316
1282.00,0.0316
1281.00,0.0317
1280.00,0.0317
1279.00,0.0317
1278.00,0.0318
1277.00,0.0318
1276.00,0.0318
1275.00,0.0319
1274.00,0.0320
1273.00,0.0320
1272.00,0.0320
1271.00,0.0320
1270.00,0.0320
1269.00,0.0320
1268.00,0.0320
1267.00,0.0320
1266.00,0.0320
1265.00,0.0319
1264.00,0.0318
1263.00,0.0318
1262.00,0.0318
1261.00,0.0319
1260.00,0.0320
1259.00,0.0321
1258.00,0.0321
1257.00,0.0321
1256.00,0.0322
1255.00,0.0323
1254.00,0.0324
1253.00,0.0325
1252.00,0.0326
1251.00,0.0326
1250.00,0.0327
1249.00,0.0326
1248.00,0.0326
1247.00,0.0326
1246.00,0.0326
1245.00,0.0327
1244.00,0.0327
1243.00,0.0326
1242.00,0.0326
1241.00,0.0326
1240.00,0.0327
1239.00,0.0327
1238.00,0.0326
1237.00,0.0326
1236.00,0.0326
1235.00,0.0325
1234.00,0.0325
1233.00,0.0324
1232.00,0.0324
1231.00,0.0324
1230.00,0.0324
1229.00,0.0324
1228.00,0.0324
1227.00,0.0324
1226.00,0.0324
1225.00,0.0324
1224.00,0.0324
1223.00,0.0323
1222.00,0.0323
1221.00,0.0322
1220.00,0.0322
1219.00,0.0321
1218.00,0.0321
1217.00,0.0321
1216.00,0.0321
1215.00,0.0320
1214.00,0.0320
1213.00,0.0319
1212.00,0.0318
1211.00,0.0318
1210.00,0.0318
1209.00,0.0318
1208.00,0.0318
1207.00,0.0317
1206.00,0.0317
1205.00,0.0317
1204.00,0.0317
1203.00,0.0316
1202.00,0.0315
1201.00,0.0315
1200.00,0.0314
1199.00,0.0314
1198.00,0.0314
1197.00,0.0314
1196.00,0.0313
1195.00,0.0313
1194.00,0.0312
1193.00,0.0312
1192.00,0.0311
1191.00,0.0311
1190.00,0.0311
1189.00,0.0311
1188.00,0.0311
1187.00,0.0311
1186.00,0.0311
1185.00,0.0311
1184.00,0.0311
1183.00,0.0310
1182.00,0.0310
1181.00,0.0309
1180.00,0.0310
1179.00,0.0310
1178.00,0.0310
1177.00,0.0310
1176.00,0.0310
1175.00,0.0310
1174.00,0.0310
1173.00,0.0309
1172.00,0.0309
1171.00,0.0309
1170.00,0.0308
1169.00,0.0309
1168.00,0.0309
1167.00,0.0309
1166.00,0.0309
1165.00,0.0308
1164.00,0.0307
1163.00,0.0307
1162.00,0.0307
1161.00,0.0307
1160.00,0.0307
1159.00,0.0307
1158.00,0.0306
1157.00,0.0306
1156.00,0.0305
1155.00,0.0305
1154.00,0.0305
1153.00,0.0306
1152.00,0.0305
1151.00,0.0305
1150.00,0.0304
1149.00,0.0304
1148.00,0.0303
1147.00,0.0303
1146.00,0.0304
1145.00,0.0304
1144.00,0.0304
1143.00,0.0303
1142.00,0.0303
1141.00,0.0302
1140.00,0.0301
1139.00,0.0301
1138.00,0.0301
1137.00,0.0301
1136.00,0.0301
1135.00,0.0301
1134.00,0.0301
1133.00,0.0301
1132.00,0.0300
1131.00,0.0300
1130.00,0.0300
1129.00,0.0300
1128.00,0.0300
1127.00,0.0300
1126.00,0.0300
1125.00,0.0301
1124.00,0.0300
1123.00,0.0299
1122.00,0.0298
1121.00,0.0297
1120.00,0.0297
1119.00,0.0297
1118.00,0.0298
1117.00,0.0298
1116.00,0.0298
1115.00,0.0298
1114.00,0.0298
1113.00,0.0298
1112.00,0.0298
1111.00,0.0297
1110.00,0.0297
1109.00,0.0297
1108.00,0.0296
1107.00,0.0296
1106.00,0.0297
1105.00,0.0297
1104.00,0.0298
1103.00,0.0297
1102.00,0.0297
1101.00,0.0296
1100.00,0.0296
1099.00,0.0297
1098.00,0.0296
1097.00,0.0296
1096.00,0.0295
1095.00,0.0295
1094.00,0.0295
1093.00,0.0297
1092.00,0.0298
1091.00,0.0299
1090.00,0.0299
1089.00,0.0298
1088.00,0.0298
1087.00,0.0298
1086.00,0.0299
1085.00,0.0299
1084.00,0.0299
1083.00,0.0299
1082.00,0.0299
1081.00,0.0298
1080.00,0.0297
1079.00,0.0296
1078.00,0.0297
1077.00,0.0298
1076.00,0.0299
1075.00,0.0300
1074.00,0.0301
1073.00,0.0302
1072.00,0.0304
1071.00,0.0305
1070.00,0.0305
1069.00,0.0304
1068.00,0.0302
1067.00,0.0301
1066.00,0.0301
1065.00,0.0301
1064.00,0.0301
1063.00,0.0302
1062.00,0.0301
1061.00,0.0301
1060.00,0.0301
1059.00,0.0301
1058.00,0.0302
1057.00,0.0302
1056.00,0.0302
1055.00,0.0302
1054.00,0.0302
1053.00,0.0303
1052.00,0.0304
1051.00,0.0305
1050.00,0.0306
1049.00,0.0307
1048.00,0.0307
1047.00,0.0307
1046.00,0.0307
1045.00,0.0307
1044.00,0.0307
1043.00,0.0307
1042.00,0.0307
1041.00,0.0306
1040.00,0.0306
1039.00,0.0306
1038.00,0.0306
1037.00,0.0306
1036.00,0.0306
1035.00,0.0306
1034.00,0.0306
1033.00,0.0306
1032.00,0.0306
1031.00,0.0306
1030.00,0.0304
1029.00,0.0303
1028.00,0.0301
1027.00,0.0300
1026.00,0.0299
1025.00,0.0298
1024.00,0.0298
1023.00,0.0297
1022.00,0.0297
1021.00,0.0297
1020.00,0.0296
1019.00,0.0296
1018.00,0.0296
1017.00,0.0297
1016.00,0.0298
1015.00,0.0298
1014.00,0.0298
1013.00,0.0298
1012.00,0.0298
1011.00,0.0297
1010.00,0.0297
1009.00,0.0297
1008.00,0.0297
1007.00,0.0298
1006.00,0.0298
1005.00,0.0299
1004.00,0.0300
1003.00,0.0300
1002.00,0.0300
1001.00,0.0299
1000.00,0.0298
999.00,0.0297
998.00,0.0296
997.00,0.0295
996.00,0.0293
995.00,0.0292
994.00,0.0291
993.00,0.0291
992.00,0.0291
991.00,0.0291
990.00,0.0289
989.00,0.0288
988.00,0.0288
987.00,0.0289
986.00,0.0290
985.00,0.0291
984.00,0.0291
983.00,0.0290
982.00,0.0290
981.00,0.0289
980.00,0.0288
979.00,0.0288
978.00,0.0287
977.00,0.0286
976.00,0.0286
975.00,0.0287
974.00,0.0287
973.00,0.0287
972.00,0.0287
971.00,0.0288
970.00,0.0288
969.00,0.0289
968.00,0.0288
967.00,0.0288
966.00,0.0287
965.00,0.0287
964.00,0.0287
963.00,0.0287
962.00,0.0286
961.00,0.0286
960.00,0.0287
959.00,0.0287
958.00,0.0287
957.00,0.0287
956.00,0.0287
955.00,0.0287
954.00,0.0288
953.00,0.0288
952.00,0.0288
951.00,0.0288
950.00,0.0288
949.00,0.0289
948.00,0.0290
947.00,0.0290
946.00,0.0290
945.00,0.0291
944.00,0.0291
943.00,0.0291
942.00,0.0291
941.00,0.0292
940.00,0.0293
939.00,0.0293
938.00,0.0293
937.00,0.0293
936.00,0.0293
935.00,0.0293
934.00,0.0293
933.00,0.0292
932.00,0.0291
931.00,0.0291
930.00,0.0291
929.00,0.0291
928.00,0.0292
927.00,0.0293
926.00,0.0294
925.00,0.0295
924.00,0.0295
923.00,0.0295
922.00,0.0295
921.00,0.0295
920.00,0.0296
919.00,0.0297
918.00,0.0299
917.00,0.0300
916.00,0.0301
915.00,0.0300
914.00,0.0299
913.00,0.0298
912.00,0.0298
911.00,0.0300
910.00,0.0301
909.00,0.0303
908.00,0.0303
907.00,0.0302
906.00,0.0301
905.00,0.0301
904.00,0.0301
903.00,0.0301
902.00,0.0301
901.00,0.0301
900.00,0.0301
899.00,0.0301
898.00,0.0301
897.00,0.0300
896.00,0.0300
895.00,0.0301
894.00,0.0301
893.00,0.0301
892.00,0.0301
891.00,0.0301
890.00,0.0301
889.00,0.0302
888.00,0.0302
887.00,0.0303
886.00,0.0304
885.00,0.0304
884.00,0.0303
883.00,0.0302
882.00,0.0302
881.00,0.0303
880.00,0.0305
879.00,0.0307
878.00,0.0307
877.00,0.0306
876.00,0.0306
875.00,0.0305
874.00,0.0305
873.00,0.0304
872.00,0.0304
871.00,0.0303
870.00,0.0302
869.00,0.0301
868.00,0.0301
867.00,0.0302
866.00,0.0302
865.00,0.0303
864.00,0.0303
863.00,0.0303
862.00,0.0303
861.00,0.0303
860.00,0.0303
859.00,0.0304
858.00,0.0305
857.00,0.0306
856.00,0.0307
855.00,0.0308
854.00,0.0309
853.00,0.0309
852.00,0.0308
851.00,0.0308
850.00,0.0309
849.00,0.0309
848.00,0.0310
847.00,0.0311
846.00,0.0312
845.00,0.0313
844.00,0.0314
843.00,0.0314
842.00,0.0314
841.00,0.0313
840.00,0.0313
839.00,0.0314
838.00,0.0316
837.00,0.0319
836.00,0.0321
835.00,0.0322
834.00,0.0323
833.00,0.0322
832.00,0.0322
831.00,0.0323
830.00,0.0324
829.00,0.0325
828.00,0.0327
827.00,0.0327
826.00,0.0326
825.00,0.0325
824.00,0.0324
823.00,0.0325
822.00,0.0326
821.00,0.0326
820.00,0.0326
819.00,0.0326
818.00,0.0326
817.00,0.0326
816.00,0.0326
815.00,0.0326
814.00,0.0326
813.00,0.0326
812.00,0.0326
811.00,0.0327
810.00,0.0329
809.00,0.0332
808.00,0.0334
807.00,0.0335
806.00,0.0334
805.00,0.0334
804.00,0.0333
803.00,0.0333
802.00,0.0334
801.00,0.0335
800.00,0.0337
799.00,0.0338
798.00,0.0338
797.00,0.0338
796.00,0.0339
795.00,0.0340
794.00,0.0341
793.00,0.0342
792.00,0.0342
791.00,0.0342
790.00,0.0342
789.00,0.0343
788.00,0.0344
787.00,0.0345
786.00,0.0347
785.00,0.0348
784.00,0.0350
783.00,0.0352
782.00,0.0352
781.00,0.0353
780.00,0.0353
779.00,0.0352
778.00,0.0351
777.00,0.0350
776.00,0.0350
775.00,0.0351
774.00,0.0352
773.00,0.0354
772.00,0.0355
771.00,0.0356
770.00,0.0357
769.00,0.0357
768.00,0.0356
767.00,0.0355
766.00,0.0353
765.00,0.0352
764.00,0.0353
763.00,0.0355
762.00,0.0356
761.00,0.0357
760.00,0.0358
759.00,0.0360
758.00,0.0363
757.00,0.0365
756.00,0.0367
755.00,0.0367
754.00,0.0367
753.00,0.0367
752.00,0.0367
751.00,0.0366
750.00,0.0366
749.00,0.0365
748.00,0.0366
747.00,0.0367
746.00,0.0367
745.00,0.0367
744.00,0.0367
743.00,0.0367
742.00,0.0367
741.00,0.0367
740.00,0.0366
739.00,0.0365
738.00,0.0365
737.00,0.0365
736.00,0.0365
735.00,0.0365
734.00,0.0365
733.00,0.0366
732.00,0.0367
731.00,0.0369
730.00,0.0371
729.00,0.0370
728.00,0.0368
727.00,0.0367
726.00,0.0368
725.00,0.0370
724.00,0.0371
723.00,0.0372
722.00,0.0373
721.00,0.0375
720.00,0.0375
719.00,0.0375
718.00,0.0374
717.00,0.0374
716.00,0.0374
715.00,0.0375
714.00,0.0376
713.00,0.0378
712.00,0.0380
711.00,0.0381
710.00,0.0381
709.00,0.0382
708.00,0.0383
707.00,0.0385
706.00,0.0388
705.00,0.0392
704.00,0.0396
703.00,0.0396
702.00,0.0394
701.00,0.0392
700.00,0.0391
699.00,0.0392
698.00,0.0395
697.00,0.0397
696.00,0.0398
695.00,0.0397
694.00,0.0396
693.00,0.0395
692.00,0.0398
691.00,0.0402
690.00,0.0405
689.00,0.0406
688.00,0.0405
687.00,0.0403
686.00,0.0401
685.00,0.0400
684.00,0.0399
683.00,0.0400
682.00,0.0401
681.00,0.0402
680.00,0.0405
679.00,0.0407
678.00,0.0408
677.00,0.0408
676.00,0.0409
675.00,0.0409
674.00,0.0409
673.00,0.0409
672.00,0.0408
671.00,0.0407
670.00,0.0406
669.00,0.0411
668.00,0.0426
667.00,0.0438
666.00,0.0439
665.00,0.0433
664.00,0.0427
663.00,0.0422
662.00,0.0420
661.00,0.0422
660.00,0.0429
659.00,0.0436
658.00,0.0440
657.00,0.0439
656.00,0.0437
655.00,0.0435
654.00,0.0435
653.00,0.0437
652.00,0.0438
651.00,0.0439
650.00,0.0439
