Created as New Dataset,
cm-1,A
4000.00,0.0022
3999.00,0.0022
3998.00,0.0022
3997.00,0.0022
3996.00,0.0021
3995.00,0.0022
3994.00,0.0022
3993.00,0.0022
3992.00,0.0022
3991.00,0.0022
3990.00,0.0021
3989.00,0.0021
3988.00,0.0021
3987.00,0.0021
3986.00,0.0022
3985.00,0.0022
3984.00,0.0022
3983.00,0.0022
3982.00,0.0022
3981.00,0.0023
3980.00,0.0023
3979.00,0.0023
3978.00,0.0023
3977.00,0.0022
3976.00,0.0022
3975.00,0.0022
3974.00,0.0022
3973.00,0.0022
3972.00,0.0022
3971.00,0.0021
3970.00,0.0021
3969.00,0.0020
3968.00,0.0020
3967.00,0.0020
3966.00,0.0019
3965.00,0.0019
3964.00,0.0020
3963.00,0.0020
3962.00,0.0020
3961.00,0.0020
3960.00,0.0020
3959.00,0.0020
3958.00,0.0020
3957.00,0.0020
3956.00,0.0020
3955.00,0.0020
3954.00,0.0020
3953.00,0.0019
3952.00,0.0019
3951.00,0.0019
3950.00,0.0018
3949.00,0.0018
3948.00,0.0018
3947.00,0.0018
3946.00,0.0017
3945.00,0.0018
3944.00,0.0018
3943.00,0.0018
3942.00,0.0018
3941.00,0.0018
3940.00,0.0018
3939.00,0.0019
3938.00,0.0019
3937.00,0.0019
3936.00,0.0018
3935.00,0.0018
3934.00,0.0018
3933.00,0.0018
3932.00,0.0017
3931.00,0.0017
3930.00,0.0016
3929.00,0.0016
3928.00,0.0016
3927.00,0.0016
3926.00,0.0017
3925.00,0.0017
3924.00,0.0017
3923.00,0.0016
3922.00,0.0016
3921.00,0.0016
3920.00,0.0015
3919.00,0.0015
3918.00,0.0015
3917.00,0.0016
3916.00,0.0016
3915.00,0.0016
3914.00,0.0016
3913.00,0.0018
3912.00,0.0019
3911.00,0.0019
3910.00,0.0019
3909.00,0.0018
3908.00,0.0017
3907.00,0.0015
3906.00,0.0013
3905.00,0.0011
3904.00,0.0010
3903.00,0.0009
3902.00,0.0008
3901.00,0.0009
3900.00,0.0010
3899.00,0.0010
3898.00,0.0011
3897.00,0.0012
3896.00,0.0013
3895.00,0.0014
3894.00,0.0015
3893.00,0.0015
3892.00,0.0015
3891.00,0.0014
3890.00,0.0013
3889.00,0.0012
3888.00,0.0013
3887.00,0.0014
3886.00,0.0014
3885.00,0.0013
3884.00,0.0011
3883.00,0.0011
3882.00,0.0012
3881.00,0.0013
3880.00,0.0013
3879.00,0.0012
3878.00,0.0011
3877.00,0.0012
3876.00,0.0013
3875.00,0.0013
3874.00,0.0012
3873.00,0.0010
3872.00,0.0009
3871.00,0.0010
3870.00,0.0010
3869.00,0.0009
3868.00,0.0008
3867.00,0.0008
3866.00,0.0010
3865.00,0.0011
3864.00,0.0011
3863.00,0.0011
3862.00,0.0012
3861.00,0.0012
3860.00,0.0012
3859.00,0.0012
3858.00,0.0010
3857.00,0.0007
3856.00,0.0004
3855.00,0.0003
3854.00,0.0005
3853.00,0.0006
3852.00,0.0003
3851.00,0.0002
3850.00,0.0006
3849.00,0.0010
3848.00,0.0012
3847.00,0.0013
3846.00,0.0013
3845.00,0.0012
3844.00,0.0010
3843.00,0.0008
3842.00,0.0007
3841.00,0.0006
3840.00,0.0006
3839.00,0.0007
3838.00,0.0007
3837.00,0.0007
3836.00,0.0007
3835.00,0.0007
3834.00,0.0009
3833.00,0.0010
3832.00,0.0011
3831.00,0.0012
3830.00,0.0012
3829.00,0.0013
3828.00,0.0014
3827.00,0.0014
3826.00,0.0012
3825.00,0.0010
3824.00,0.0008
3823.00,0.0007
3822.00,0.0008
3821.00,0.0008
3820.00,0.0006
3819.00,0.0005
3818.00,0.0006
3817.00,0.0009
3816.00,0.0011
3815.00,0.0011
3814.00,0.0011
3813.00,0.0012
3812.00,0.0013
3811.00,0.0013
3810.00,0.0012
3809.00,0.0011
3808.00,0.0011
3807.00,0.0011
3806.00,0.0009
3805.00,0.0006
3804.00,0.0006
3803.00,0.0007
3802.00,0.0009
3801.00,0.0009
3800.00,0.0007
3799.00,0.0006
3798.00,0.0008
3797.00,0.0010
3796.00,0.0011
3795.00,0.0011
3794.00,0.0012
3793.00,0.0014
3792.00,0.0015
3791.00,0.0015
3790.00,0.0015
3789.00,0.0014
3788.00,0.0014
3787.00,0.0013
3786.00,0.0013
3785.00,0.0012
3784.00,0.0012
3783.00,0.0011
3782.00,0.0011
3781.00,0.0011
3780.00,0.0011
3779.00,0.0011
3778.00,0.0011
3777.00,0.0012
3776.00,0.0013
3775.00,0.0013
3774.00,0.0012
3773.00,0.0011
3772.00,0.0010
3771.00,0.0009
3770.00,0.0009
3769.00,0.0008
3768.00,0.0008
3767.00,0.0009
3766.00,0.0010
3765.00,0.0011
3764.00,0.0010
3763.00,0.0010
3762.00,0.0010
3761.00,0.0011
3760.00,0.0011
3759.00,0.0010
3758.00,0.0009
3757.00,0.0007
3756.00,0.0006
3755.00,0.0005
3754.00,0.0003
3753.00,0.0002
3752.00,0.0003
3751.00,0.0004
3750.00,0.0004
3749.00,0.0003
3748.00,0.0001
3747.00,0.0001
3746.00,0.0002
3745.00,0.0004
3744.00,0.0003
3743.00,0.0001
3742.00,0.0001
3741.00,0.0003
3740.00,0.0005
3739.00,0.0003
3738.00,0.0001
3737.00,-0.0000
3736.00,-0.0001
3735.00,-0.0001
3734.00,-0.0001
3733.00,0.0000
3732.00,0.0002
3731.00,0.0004
3730.00,0.0006
3729.00,0.0008
3728.00,0.0009
3727.00,0.0010
3726.00,0.0009
3725.00,0.0008
3724.00,0.0007
3723.00,0.0007
3722.00,0.0008
3721.00,0.0008
3720.00,0.0009
3719.00,0.0010
3718.00,0.0010
3717.00,0.0010
3716.00,0.0009
3715.00,0.0008
3714.00,0.0007
3713.00,0.0007
3712.00,0.0007
3711.00,0.0007
3710.00,0.0007
3709.00,0.0007
3708.00,0.0008
3707.00,0.0010
3706.00,0.0011
3705.00,0.0011
3704.00,0.0011
3703.00,0.0012
3702.00,0.0013
3701.00,0.0013
3700.00,0.0014
3699.00,0.0014
3698.00,0.0016
3697.00,0.0016
3696.00,0.0016
3695.00,0.0015
3694.00,0.0013
3693.00,0.0011
3692.00,0.0010
3691.00,0.0010
3690.00,0.0011
3689.00,0.0012
3688.00,0.0012
3687.00,0.0012
3686.00,0.0014
3685.00,0.0016
3684.00,0.0018
3683.00,0.0019
3682.00,0.0019
3681.00,0.0017
3680.00,0.0015
3679.00,0.0012
3678.00,0.0010
3677.00,0.0010
3676.00,0.0013
3675.00,0.0014
3674.00,0.0012
3673.00,0.0012
3672.00,0.0014
3671.00,0.0018
3670.00,0.0020
3669.00,0.0020
3668.00,0.0021
3667.00,0.0023
3666.00,0.0026
3665.00,0.0028
3664.00,0.0030
3663.00,0.0030
3662.00,0.0031
3661.00,0.0030
3660.00,0.0030
3659.00,0.0030
3658.00,0.0030
3657.00,0.0032
3656.00,0.0033
3655.00,0.0032
3654.00,0.0031
3653.00,0.0030
3652.00,0.0027
3651.00,0.0026
3650.00,0.0026
3649.00,0.0029
3648.00,0.0031
3647.00,0.0033
3646.00,0.0035
3645.00,0.0038
3644.00,0.0042
3643.00,0.0045
3642.00,0.0047
3641.00,0.0048
3640.00,0.0049
3639.00,0.0051
3638.00,0.0051
3637.00,0.0052
3636.00,0.0052
3635.00,0.0052
3634.00,0.0051
3633.00,0.0049
3632.00,0.0047
3631.00,0.0047
3630.00,0.0049
3629.00,0.0052
3628.00,0.0053
3627.00,0.0053
3626.00,0.0054
3625.00,0.0057
3624.00,0.0059
3623.00,0.0059
3622.00,0.0059
3621.00,0.0060
3620.00,0.0062
3619.00,0.0063
3618.00,0.0063
3617.00,0.0063
3616.00,0.0063
3615.00,0.0064
3614.00,0.0064
3613.00,0.0064
3612.00,0.0065
3611.00,0.0066
3610.00,0.0068
3609.00,0.0070
3608.00,0.0071
3607.00,0.0072
3606.00,0.0073
3605.00,0.0074
3604.00,0.0075
3603.00,0.0076
3602.00,0.0077
3601.00,0.0077
3600.00,0.0078
3599.00,0.0077
3598.00,0.0077
3597.00,0.0077
3596.00,0.0078
3595.00,0.0079
3594.00,0.0080
3593.00,0.0080
3592.00,0.0080
3591.00,0.0080
3590.00,0.0079
3589.00,0.0080
3588.00,0.0082
3587.00,0.0083
3586.00,0.0084
3585.00,0.0085
3584.00,0.0087
3583.00,0.0089
3582.00,0.0091
3581.00,0.0092
3580.00,0.0093
3579.00,0.0094
3578.00,0.0095
3577.00,0.0095
3576.00,0.0095
3575.00,0.0095
3574.00,0.0095
3573.00,0.0095
3572.00,0.0094
3571.00,0.0093
3570.00,0.0091
3569.00,0.0090
3568.00,0.0091
3567.00,0.0093
3566.00,0.0094
3565.00,0.0095
3564.00,0.0097
3563.00,0.0099
3562.00,0.0101
3561.00,0.0102
3560.00,0.0103
3559.00,0.0104
3558.00,0.0104
3557.00,0.0104
3556.00,0.0104
3555.00,0.0103
3554.00,0.0104
3553.00,0.0104
3552.00,0.0105
3551.00,0.0105
3550.00,0.0106
3549.00,0.0106
3548.00,0.0106
3547.00,0.0107
3546.00,0.0108
3545.00,0.0109
3544.00,0.0110
3543.00,0.0111
3542.00,0.0112
3541.00,0.0113
3540.00,0.0114
3539.00,0.0114
3538.00,0.0114
3537.00,0.0114
3536.00,0.0115
3535.00,0.0115
3534.00,0.0115
3533.00,0.0115
3532.00,0.0115
3531.00,0.0115
3530.00,0.0115
3529.00,0.0116
3528.00,0.0117
3527.00,0.0117
3526.00,0.0118
3525.00,0.0119
3524.00,0.0119
3523.00,0.0120
3522.00,0.0121
3521.00,0.0121
3520.00,0.0122
3519.00,0.0123
3518.00,0.0124
3517.00,0.0124
3516.00,0.0125
3515.00,0.0125
3514.00,0.0126
3513.00,0.0126
3512.00,0.0126
3511.00,0.0127
3510.00,0.0127
3509.00,0.0128
3508.00,0.0128
3507.00,0.0128
3506.00,0.0128
3505.00,0.0128
3504.00,0.0128
3503.00,0.0129
3502.00,0.0129
3501.00,0.0130
3500.00,0.0131
3499.00,0.0132
3498.00,0.0132
3497.00,0.0133
3496.00,0.0133
3495.00,0.0133
3494.00,0.0134
3493.00,0.0134
3492.00,0.0134
3491.00,0.0134
3490.00,0.0134
3489.00,0.0134
3488.00,0.0134
3487.00,0.0134
3486.00,0.0135
3485.00,0.0136
3484.00,0.0137
3483.00,0.0138
3482.00,0.0138
3481.00,0.0139
3480.00,0.0139
3479.00,0.0140
3478.00,0.0140
3477.00,0.0141
3476.00,0.0141
3475.00,0.0142
3474.00,0.0142
3473.00,0.0142
3472.00,0.0143
3471.00,0.0144
3470.00,0.0144
3469.00,0.0144
3468.00,0.0144
3467.00,0.0144
3466.00,0.0145
3465.00,0.0145
3464.00,0.0145
3463.00,0.0145
3462.00,0.0145
3461.00,0.0145
3460.00,0.0145
3459.00,0.0146
3458.00,0.0146
3457.00,0.0147
3456.00,0.0148
3455.00,0.0148
3454.00,0.0149
3453.00,0.0149
3452.00,0.0149
3451.00,0.0148
3450.00,0.0148
3449.00,0.0148
3448.00,0.0148
3447.00,0.0149
3446.00,0.0149
3445.00,0.0150
3444.00,0.0150
3443.00,0.0150
3442.00,0.0151
3441.00,0.0151
3440.00,0.0152
3439.00,0.0152
3438.00,0.0152
3437.00,0.0152
3436.00,0.0152
3435.00,0.0153
3434.00,0.0153
3433.00,0.0153
3432.00,0.0154
3431.00,0.0154
3430.00,0.0154
3429.00,0.0154
3428.00,0.0154
3427.00,0.0155
3426.00,0.0155
3425.00,0.0156
3424.00,0.0156
3423.00,0.0156
3422.00,0.0156
3421.00,0.0156
3420.00,0.0156
3419.00,0.0156
3418.00,0.0157
3417.00,0.0157
3416.00,0.0157
3415.00,0.0157
3414.00,0.0158
3413.00,0.0159
3412.00,0.0159
3411.00,0.0159
3410.00,0.0160
3409.00,0.0160
3408.00,0.0160
3407.00,0.0160
3406.00,0.0161
3405.00,0.0161
3404.00,0.0161
3403.00,0.0161
3402.00,0.0161
3401.00,0.0161
3400.00,0.0160
3399.00,0.0160
3398.00,0.0160
3397.00,0.0160
3396.00,0.0160
3395.00,0.0161
3394.00,0.0161
3393.00,0.0161
3392.00,0.0162
3391.00,0.0162
3390.00,0.0162
3389.00,0.0162
3388.00,0.0162
3387.00,0.0162
3386.00,0.0163
3385.00,0.0163
3384.00,0.0164
3383.00,0.0163
3382.00,0.0163
3381.00,0.0163
3380.00,0.0163
3379.00,0.0163
3378.00,0.0164
3377.00,0.0164
3376.00,0.0164
3375.00,0.0164
3374.00,0.0165
3373.00,0.0165
3372.00,0.0165
3371.00,0.0165
3370.00,0.0165
3369.00,0.0164
3368.00,0.0164
3367.00,0.0165
3366.00,0.0165
3365.00,0.0166
3364.00,0.0166
3363.00,0.0166
3362.00,0.0165
3361.00,0.0165
3360.00,0.0165
3359.00,0.0165
3358.00,0.0165
3357.00,0.0165
3356.00,0.0166
3355.00,0.0166
3354.00,0.0166
3353.00,0.0165
3352.00,0.0165
3351.00,0.0165
3350.00,0.0165
3349.00,0.0165
3348.00,0.0165
3347.00,0.0165
3346.00,0.0165
3345.00,0.0165
3344.00,0.0165
3343.00,0.0165
3342.00,0.0165
3341.00,0.0165
3340.00,0.0165
3339.00,0.0165
3338.00,0.0165
3337.00,0.0165
3336.00,0.0165
3335.00,0.0166
3334.00,0.0166
3333.00,0.0166
3332.00,0.0166
3331.00,0.0166
3330.00,0.0166
3329.00,0.0166
3328.00,0.0166
3327.00,0.0167
3326.00,0.0167
3325.00,0.0167
3324.00,0.0167
3323.00,0.0167
3322.00,0.0167
3321.00,0.0167
3320.00,0.0166
3319.00,0.0166
3318.00,0.0166
3317.00,0.0166
3316.00,0.0166
3315.00,0.0166
3314.00,0.0166
3313.00,0.0166
3312.00,0.0166
3311.00,0.0166
3310.00,0.0166
3309.00,0.0166
3308.00,0.0166
3307.00,0.0167
3306.00,0.0167
3305.00,0.0167
3304.00,0.0167
3303.00,0.0167
3302.00,0.0167
3301.00,0.0166
3300.00,0.0166
3299.00,0.0166
3298.00,0.0165
3297.00,0.0165
3296.00,0.0165
3295.00,0.0165
3294.00,0.0165
3293.00,0.0165
3292.00,0.0166
3291.00,0.0166
3290.00,0.0166
3289.00,0.0166
3288.00,0.0166
3287.00,0.0166
3286.00,0.0167
3285.00,0.0167
3284.00,0.0167
3283.00,0.0166
3282.00,0.0166
3281.00,0.0166
3280.00,0.0166
3279.00,0.0166
3278.00,0.0166
3277.00,0.0166
3276.00,0.0166
3275.00,0.0166
3274.00,0.0167
3273.00,0.0167
3272.00,0.0167
3271.00,0.0167
3270.00,0.0167
3269.00,0.0167
3268.00,0.0167
3267.00,0.0167
3266.00,0.0167
3265.00,0.0167
3264.00,0.0167
3263.00,0.0167
3262.00,0.0167
3261.00,0.0167
3260.00,0.0167
3259.00,0.0167
3258.00,0.0167
3257.00,0.0167
3256.00,0.0167
3255.00,0.0167
3254.00,0.0167
3253.00,0.0167
3252.00,0.0166
3251.00,0.0166
3250.00,0.0165
3249.00,0.0165
3248.00,0.0166
3247.00,0.0166
3246.00,0.0166
3245.00,0.0167
3244.00,0.0167
3243.00,0.0166
3242.00,0.0166
3241.00,0.0166
3240.00,0.0166
3239.00,0.0166
3238.00,0.0167
3237.00,0.0167
3236.00,0.0167
3235.00,0.0167
3234.00,0.0167
3233.00,0.0168
3232.00,0.0168
3231.00,0.0168
3230.00,0.0168
3229.00,0.0168
3228.00,0.0168
3227.00,0.0167
3226.00,0.0168
3225.00,0.0167
3224.00,0.0167
3223.00,0.0167
3222.00,0.0167
3221.00,0.0167
3220.00,0.0167
3219.00,0.0167
3218.00,0.0166
3217.00,0.0166
3216.00,0.0166
3215.00,0.0166
3214.00,0.0166
3213.00,0.0166
3212.00,0.0167
3211.00,0.0167
3210.00,0.0167
3209.00,0.0167
3208.00,0.0167
3207.00,0.0167
3206.00,0.0167
3205.00,0.0167
3204.00,0.0167
3203.00,0.0167
3202.00,0.0167
3201.00,0.0167
3200.00,0.0167
3199.00,0.0167
3198.00,0.0167
3197.00,0.0166
3196.00,0.0166
3195.00,0.0166
3194.00,0.0166
3193.00,0.0166
3192.00,0.0166
3191.00,0.0165
3190.00,0.0165
3189.00,0.0165
3188.00,0.0165
3187.00,0.0165
3186.00,0.0165
3185.00,0.0165
3184.00,0.0165
3183.00,0.0166
3182.00,0.0166
3181.00,0.0165
3180.00,0.0165
3179.00,0.0165
3178.00,0.0164
3177.00,0.0164
3176.00,0.0164
3175.00,0.0164
3174.00,0.0164
3173.00,0.0164
3172.00,0.0164
3171.00,0.0164
3170.00,0.0164
3169.00,0.0164
3168.00,0.0164
3167.00,0.0163
3166.00,0.0163
3165.00,0.0163
3164.00,0.0163
3163.00,0.0163
3162.00,0.0163
3161.00,0.0163
3160.00,0.0163
3159.00,0.0163
3158.00,0.0163
3157.00,0.0163
3156.00,0.0162
3155.00,0.0162
3154.00,0.0161
3153.00,0.0161
3152.00,0.0161
3151.00,0.0161
3150.00,0.0161
3149.00,0.0161
3148.00,0.0161
3147.00,0.0161
3146.00,0.0161
3145.00,0.0162
3144.00,0.0162
3143.00,0.0162
3142.00,0.0161
3141.00,0.0161
3140.00,0.0161
3139.00,0.0160
3138.00,0.0160
3137.00,0.0160
3136.00,0.0161
3135.00,0.0160
3134.00,0.0160
3133.00,0.0160
3132.00,0.0159
3131.00,0.0160
3130.00,0.0160
3129.00,0.0160
3128.00,0.0160
3127.00,0.0159
3126.00,0.0159
3125.00,0.0159
3124.00,0.0159
3123.00,0.0159
3122.00,0.0158
3121.00,0.0158
3120.00,0.0158
3119.00,0.0158
3118.00,0.0158
3117.00,0.0158
3116.00,0.0158
3115.00,0.0158
3114.00,0.0159
3113.00,0.0159
3112.00,0.0158
3111.00,0.0158
3110.00,0.0157
3109.00,0.0156
3108.00,0.0156
3107.00,0.0157
3106.00,0.0157
3105.00,0.0157
3104.00,0.0157
3103.00,0.0157
3102.00,0.0157
3101.00,0.0157
3100.00,0.0157
3099.00,0.0157
3098.00,0.0157
3097.00,0.0157
3096.00,0.0157
3095.00,0.0157
3094.00,0.0156
3093.00,0.0156
3092.00,0.0156
3091.00,0.0156
3090.00,0.0156
3089.00,0.0156
3088.00,0.0156
3087.00,0.0155
3086.00,0.0155
3085.00,0.0155
3084.00,0.0155
3083.00,0.0155
3082.00,0.0155
3081.00,0.0155
3080.00,0.0155
3079.00,0.0154
3078.00,0.0154
3077.00,0.0154
3076.00,0.0154
3075.00,0.0154
3074.00,0.0154
3073.00,0.0154
3072.00,0.0154
3071.00,0.0154
3070.00,0.0154
3069.00,0.0153
3068.00,0.0153
3067.00,0.0153
3066.00,0.0153
3065.00,0.0153
3064.00,0.0153
3063.00,0.0153
3062.00,0.0152
3061.00,0.0152
3060.00,0.0152
3059.00,0.0152
3058.00,0.0152
3057.00,0.0152
3056.00,0.0152
3055.00,0.0153
3054.00,0.0153
3053.00,0.0152
3052.00,0.0152
3051.00,0.0151
3050.00,0.0150
3049.00,0.0150
3048.00,0.0149
3047.00,0.0149
3046.00,0.0149
3045.00,0.0150
3044.00,0.0150
3043.00,0.0149
3042.00,0.0149
3041.00,0.0148
3040.00,0.0148
3039.00,0.0148
3038.00,0.0148
3037.00,0.0148
3036.00,0.0148
3035.00,0.0147
3034.00,0.0147
3033.00,0.0147
3032.00,0.0148
3031.00,0.0148
3030.00,0.0147
3029.00,0.0147
3028.00,0.0146
3027.00,0.0146
3026.00,0.0145
3025.00,0.0145
3024.00,0.0145
3023.00,0.0145
3022.00,0.0145
3021.00,0.0145
3020.00,0.0146
3019.00,0.0146
3018.00,0.0145
3017.00,0.0145
3016.00,0.0145
3015.00,0.0145
3014.00,0.0145
3013.00,0.0145
3012.00,0.0145
3011.00,0.0145
3010.00,0.0145
3009.00,0.0145
3008.00,0.0145
3007.00,0.0145
3006.00,0.0146
3005.00,0.0146
3004.00,0.0146
3003.00,0.0145
3002.00,0.0145
3001.00,0.0145
3000.00,0.0145
2999.00,0.0145
2998.00,0.0145
2997.00,0.0145
2996.00,0.0144
2995.00,0.0144
2994.00,0.0144
2993.00,0.0145
2992.00,0.0144
2991.00,0.0144
2990.00,0.0144
2989.00,0.0144
2988.00,0.0144
2987.00,0.0144
2986.00,0.0145
2985.00,0.0145
2984.00,0.0145
2983.00,0.0145
2982.00,0.0145
2981.00,0.0144
2980.00,0.0145
2979.00,0.0145
2978.00,0.0145
2977.00,0.0145
2976.00,0.0145
2975.00,0.0145
2974.00,0.0144
2973.00,0.0144
2972.00,0.0144
2971.00,0.0143
2970.00,0.0143
2969.00,0.0142
2968.00,0.0142
2967.00,0.0142
2966.00,0.0142
2965.00,0.0142
2964.00,0.0141
2963.00,0.0141
2962.00,0.0141
2961.00,0.0141
2960.00,0.0140
2959.00,0.0140
2958.00,0.0141
2957.00,0.0141
2956.00,0.0141
2955.00,0.0141
2954.00,0.0141
2953.00,0.0142
2952.00,0.0142
2951.00,0.0142
2950.00,0.0142
2949.00,0.0142
2948.00,0.0142
2947.00,0.0142
2946.00,0.0142
2945.00,0.0143
2944.00,0.0143
2943.00,0.0143
2942.00,0.0143
2941.00,0.0143
2940.00,0.0142
2939.00,0.0142
2938.00,0.0141
2937.00,0.0141
2936.00,0.0141
2935.00,0.0141
2934.00,0.0141
2933.00,0.0141
2932.00,0.0141
2931.00,0.0140
2930.00,0.0140
2929.00,0.0139
2928.00,0.0138
2927.00,0.0137
2926.00,0.0136
2925.00,0.0136
2924.00,0.0136
2923.00,0.0135
2922.00,0.0136
2921.00,0.0136
2920.00,0.0135
2919.00,0.0135
2918.00,0.0134
2917.00,0.0134
2916.00,0.0134
2915.00,0.0134
2914.00,0.0135
2913.00,0.0135
2912.00,0.0135
2911.00,0.0135
2910.00,0.0135
2909.00,0.0136
2908.00,0.0136
2907.00,0.0136
2906.00,0.0136
2905.00,0.0135
2904.00,0.0135
2903.00,0.0135
2902.00,0.0135
2901.00,0.0134
2900.00,0.0134
2899.00,0.0134
2898.00,0.0134
2897.00,0.0133
2896.00,0.0133
2895.00,0.0132
2894.00,0.0132
2893.00,0.0133
2892.00,0.0133
2891.00,0.0133
2890.00,0.0133
2889.00,0.0132
2888.00,0.0132
2887.00,0.0132
2886.00,0.0132
2885.00,0.0132
2884.00,0.0132
2883.00,0.0132
2882.00,0.0132
2881.00,0.0131
2880.00,0.0131
2879.00,0.0131
2878.00,0.0130
2877.00,0.0130
2876.00,0.0129
2875.00,0.0128
2874.00,0.0127
2873.00,0.0127
2872.00,0.0126
2871.00,0.0126
2870.00,0.0126
2869.00,0.0126
2868.00,0.0126
2867.00,0.0125
2866.00,0.0125
2865.00,0.0125
2864.00,0.0125
2863.00,0.0125
2862.00,0.0125
2861.00,0.0124
2860.00,0.0124
2859.00,0.0125
2858.00,0.0124
2857.00,0.0124
2856.00,0.0124
2855.00,0.0123
2854.00,0.0123
2853.00,0.0123
2852.00,0.0123
2851.00,0.0122
2850.00,0.0122
2849.00,0.0121
2848.00,0.0121
2847.00,0.0121
2846.00,0.0121
2845.00,0.0121
2844.00,0.0121
2843.00,0.0121
2842.00,0.0121
2841.00,0.0121
2840.00,0.0121
2839.00,0.0121
2838.00,0.0121
2837.00,0.0120
2836.00,0.0120
2835.00,0.0119
2834.00,0.0119
2833.00,0.0119
2832.00,0.0119
2831.00,0.0119
2830.00,0.0118
2829.00,0.0118
2828.00,0.0118
2827.00,0.0118
2826.00,0.0117
2825.00,0.0117
2824.00,0.0116
2823.00,0.0116
2822.00,0.0116
2821.00,0.0116
2820.00,0.0116
2819.00,0.0115
2818.00,0.0115
2817.00,0.0115
2816.00,0.0114
2815.00,0.0114
2814.00,0.0114
2813.00,0.0113
2812.00,0.0113
2811.00,0.0112
2810.00,0.0112
2809.00,0.0112
2808.00,0.0112
2807.00,0.0112
2806.00,0.0112
2805.00,0.0111
2804.00,0.0111
2803.00,0.0111
2802.00,0.0111
2801.00,0.0110
2800.00,0.0110
2799.00,0.0110
2798.00,0.0110
2797.00,0.0109
2796.00,0.0109
2795.00,0.0109
2794.00,0.0108
2793.00,0.0108
2792.00,0.0108
2791.00,0.0107
2790.00,0.0107
2789.00,0.0107
2788.00,0.0108
2787.00,0.0107
2786.00,0.0107
2785.00,0.0107
2784.00,0.0107
2783.00,0.0107
2782.00,0.0107
2781.00,0.0106
2780.00,0.0106
2779.00,0.0105
2778.00,0.0105
2777.00,0.0106
2776.00,0.0106
2775.00,0.0106
2774.00,0.0106
2773.00,0.0105
2772.00,0.0105
2771.00,0.0105
2770.00,0.0104
2769.00,0.0104
2768.00,0.0103
2767.00,0.0103
2766.00,0.0103
2765.00,0.0103
2764.00,0.0103
2763.00,0.0103
2762.00,0.0103
2761.00,0.0102
2760.00,0.0102
2759.00,0.0101
2758.00,0.0102
2757.00,0.0102
2756.00,0.0102
2755.00,0.0102
2754.00,0.0102
2753.00,0.0101
2752.00,0.0101
2751.00,0.0101
2750.00,0.0101
2749.00,0.0101
2748.00,0.0101
2747.00,0.0101
2746.00,0.0100
2745.00,0.0100
2744.00,0.0099
2743.00,0.0099
2742.00,0.0099
2741.00,0.0099
2740.00,0.0099
2739.00,0.0099
2738.00,0.0098
2737.00,0.0098
2736.00,0.0098
2735.00,0.0098
2734.00,0.0097
2733.00,0.0097
2732.00,0.0097
2731.00,0.0097
2730.00,0.0096
2729.00,0.0097
2728.00,0.0097
2727.00,0.0097
2726.00,0.0097
2725.00,0.0096
2724.00,0.0096
2723.00,0.0096
2722.00,0.0096
2721.00,0.0096
2720.00,0.0096
2719.00,0.0095
2718.00,0.0095
2717.00,0.0094
2716.00,0.0094
2715.00,0.0094
2714.00,0.0094
2713.00,0.0094
2712.00,0.0094
2711.00,0.0094
2710.00,0.0094
2709.00,0.0094
2708.00,0.0094
2707.00,0.0093
2706.00,0.0093
2705.00,0.0093
2704.00,0.0093
2703.00,0.0093
2702.00,0.0093
2701.00,0.0093
2700.00,0.0092
2699.00,0.0092
2698.00,0.0092
2697.00,0.0091
2696.00,0.0091
2695.00,0.0091
2694.00,0.0091
2693.00,0.0091
2692.00,0.0091
2691.00,0.0090
2690.00,0.0090
2689.00,0.0090
2688.00,0.0091
2687.00,0.0091
2686.00,0.0091
2685.00,0.0090
2684.00,0.0090
2683.00,0.0090
2682.00,0.0089
2681.00,0.0089
2680.00,0.0090
2679.00,0.0090
2678.00,0.0090
2677.00,0.0089
2676.00,0.0089
2675.00,0.0089
2674.00,0.0089
2673.00,0.0089
2672.00,0.0088
2671.00,0.0088
2670.00,0.0088
2669.00,0.0088
2668.00,0.0087
2667.00,0.0087
2666.00,0.0087
2665.00,0.0087
2664.00,0.0088
2663.00,0.0088
2662.00,0.0088
2661.00,0.0088
2660.00,0.0088
2659.00,0.0088
2658.00,0.0088
2657.00,0.0088
2656.00,0.0088
2655.00,0.0088
2654.00,0.0088
2653.00,0.0088
2652.00,0.0087
2651.00,0.0087
2650.00,0.0087
2649.00,0.0088
2648.00,0.0088
2647.00,0.0088
2646.00,0.0088
2645.00,0.0088
2644.00,0.0088
2643.00,0.0088
2642.00,0.0088
2641.00,0.0088
2640.00,0.0088
2639.00,0.0088
2638.00,0.0087
2637.00,0.0087
2636.00,0.0087
2635.00,0.0087
2634.00,0.0087
2633.00,0.0087
2632.00,0.0086
2631.00,0.0086
2630.00,0.0086
2629.00,0.0086
2628.00,0.0086
2627.00,0.0086
2626.00,0.0086
2625.00,0.0086
2624.00,0.0086
2623.00,0.0086
2622.00,0.0085
2621.00,0.0085
2620.00,0.0085
2619.00,0.0085
2618.00,0.0085
2617.00,0.0085
2616.00,0.0086
2615.00,0.0086
2614.00,0.0086
2613.00,0.0085
2612.00,0.0085
2611.00,0.0084
2610.00,0.0084
2609.00,0.0084
2608.00,0.0085
2607.00,0.0085
2606.00,0.0085
2605.00,0.0084
2604.00,0.0084
2603.00,0.0084
2602.00,0.0084
2601.00,0.0084
2600.00,0.0084
2599.00,0.0084
2598.00,0.0084
2597.00,0.0083
2596.00,0.0083
2595.00,0.0083
2594.00,0.0084
2593.00,0.0084
2592.00,0.0084
2591.00,0.0084
2590.00,0.0084
2589.00,0.0084
2588.00,0.0084
2587.00,0.0083
2586.00,0.0083
2585.00,0.0082
2584.00,0.0083
2583.00,0.0083
2582.00,0.0083
2581.00,0.0083
2580.00,0.0083
2579.00,0.0083
2578.00,0.0083
2577.00,0.0083
2576.00,0.0083
2575.00,0.0083
2574.00,0.0083
2573.00,0.0083
2572.00,0.0082
2571.00,0.0082
2570.00,0.0082
2569.00,0.0081
2568.00,0.0081
2567.00,0.0081
2566.00,0.0082
2565.00,0.0082
2564.00,0.0082
2563.00,0.0082
2562.00,0.0082
2561.00,0.0082
2560.00,0.0081
2559.00,0.0081
2558.00,0.0080
2557.00,0.0081
2556.00,0.0081
2555.00,0.0081
2554.00,0.0081
2553.00,0.0081
2552.00,0.0081
2551.00,0.0081
2550.00,0.0081
2549.00,0.0081
2548.00,0.0081
2547.00,0.0081
2546.00,0.0080
2545.00,0.0080
2544.00,0.0080
2543.00,0.0080
2542.00,0.0081
2541.00,0.0081
2540.00,0.0081
2539.00,0.0081
2538.00,0.0081
2537.00,0.0081
2536.00,0.0082
2535.00,0.0082
2534.00,0.0082
2533.00,0.0081
2532.00,0.0081
2531.00,0.0081
2530.00,0.0081
2529.00,0.0081
2528.00,0.0081
2527.00,0.0081
2526.00,0.0081
2525.00,0.0081
2524.00,0.0081
2523.00,0.0081
2522.00,0.0080
2521.00,0.0080
2520.00,0.0080
2519.00,0.0080
2518.00,0.0080
2517.00,0.0079
2516.00,0.0079
2515.00,0.0079
2514.00,0.0079
2513.00,0.0080
2512.00,0.0081
2511.00,0.0081
2510.00,0.0080
2509.00,0.0079
2508.00,0.0077
2507.00,0.0077
2506.00,0.0076
2505.00,0.0077
2504.00,0.0078
2503.00,0.0078
2502.00,0.0079
2501.00,0.0079
2500.00,0.0079
2499.00,0.0078
2498.00,0.0078
2497.00,0.0077
2496.00,0.0077
2495.00,0.0077
2494.00,0.0077
2493.00,0.0077
2492.00,0.0077
2491.00,0.0077
2490.00,0.0078
2489.00,0.0077
2488.00,0.0077
2487.00,0.0077
2486.00,0.0077
2485.00,0.0076
2484.00,0.0076
2483.00,0.0076
2482.00,0.0077
2481.00,0.0077
2480.00,0.0077
2479.00,0.0077
2478.00,0.0077
2477.00,0.0076
2476.00,0.0076
2475.00,0.0076
2474.00,0.0076
2473.00,0.0076
2472.00,0.0076
2471.00,0.0076
2470.00,0.0075
2469.00,0.0075
2468.00,0.0075
2467.00,0.0075
2466.00,0.0075
2465.00,0.0075
2464.00,0.0075
2463.00,0.0075
2462.00,0.0075
2461.00,0.0075
2460.00,0.0075
2459.00,0.0075
2458.00,0.0076
2457.00,0.0076
2456.00,0.0075
2455.00,0.0074
2454.00,0.0073
2453.00,0.0074
2452.00,0.0074
2451.00,0.0075
2450.00,0.0075
2449.00,0.0074
2448.00,0.0074
2447.00,0.0074
2446.00,0.0074
2445.00,0.0073
2444.00,0.0073
2443.00,0.0073
2442.00,0.0073
2441.00,0.0073
2440.00,0.0073
2439.00,0.0072
2438.00,0.0072
2437.00,0.0072
2436.00,0.0072
2435.00,0.0072
2434.00,0.0072
2433.00,0.0072
2432.00,0.0072
2431.00,0.0072
2430.00,0.0072
2429.00,0.0072
2428.00,0.0073
2427.00,0.0072
2426.00,0.0072
2425.00,0.0072
2424.00,0.0072
2423.00,0.0072
2422.00,0.0071
2421.00,0.0070
2420.00,0.0070
2419.00,0.0070
2418.00,0.0070
2417.00,0.0071
2416.00,0.0071
2415.00,0.0071
2414.00,0.0071
2413.00,0.0071
2412.00,0.0071
2411.00,0.0071
2410.00,0.0071
2409.00,0.0070
2408.00,0.0070
2407.00,0.0069
2406.00,0.0069
2405.00,0.0069
2404.00,0.0069
2403.00,0.0069
2402.00,0.0068
2401.00,0.0068
2400.00,0.0068
2399.00,0.0068
2398.00,0.0068
2397.00,0.0068
2396.00,0.0067
2395.00,0.0067
2394.00,0.0067
2393.00,0.0067
2392.00,0.0067
2391.00,0.0067
2390.00,0.0067
2389.00,0.0066
2388.00,0.0066
2387.00,0.0066
2386.00,0.0066
2385.00,0.0066
2384.00,0.0065
2383.00,0.0064
2382.00,0.0063
2381.00,0.0063
2380.00,0.0063
2379.00,0.0063
2378.00,0.0062
2377.00,0.0061
2376.00,0.0061
2375.00,0.0061
2374.00,0.0062
2373.00,0.0062
2372.00,0.0061
2371.00,0.0061
2370.00,0.0060
2369.00,0.0059
2368.00,0.0060
2367.00,0.0060
2366.00,0.0060
2365.00,0.0059
2364.00,0.0058
2363.00,0.0058
2362.00,0.0058
2361.00,0.0059
2360.00,0.0059
2359.00,0.0059
2358.00,0.0059
2357.00,0.0060
2356.00,0.0062
2355.00,0.0063
2354.00,0.0063
2353.00,0.0063
2352.00,0.0061
2351.00,0.0059
2350.00,0.0058
2349.00,0.0058
2348.00,0.0059
2347.00,0.0059
2346.00,0.0056
2345.00,0.0052
2344.00,0.0049
2343.00,0.0048
2342.00,0.0050
2341.00,0.0052
2340.00,0.0054
2339.00,0.0055
2338.00,0.0056
2337.00,0.0057
2336.00,0.0058
2335.00,0.0059
2334.00,0.0060
2333.00,0.0060
2332.00,0.0061
2331.00,0.0061
2330.00,0.0062
2329.00,0.0063
2328.00,0.0065
2327.00,0.0066
2326.00,0.0067
2325.00,0.0068
2324.00,0.0068
2323.00,0.0068
2322.00,0.0067
2321.00,0.0065
2320.00,0.0065
2319.00,0.0064
2318.00,0.0065
2317.00,0.0066
2316.00,0.0066
2315.00,0.0067
2314.00,0.0066
2313.00,0.0066
2312.00,0.0065
2311.00,0.0064
2310.00,0.0063
2309.00,0.0062
2308.00,0.0062
2307.00,0.0062
2306.00,0.0062
2305.00,0.0062
2304.00,0.0062
2303.00,0.0062
2302.00,0.0062
2301.00,0.0061
2300.00,0.0061
2299.00,0.0060
2298.00,0.0060
2297.00,0.0060
2296.00,0.0059
2295.00,0.0058
2294.00,0.0058
2293.00,0.0059
2292.00,0.0060
2291.00,0.0060
2290.00,0.0060
2289.00,0.0059
2288.00,0.0058
2287.00,0.0058
2286.00,0.0059
2285.00,0.0060
2284.00,0.0060
2283.00,0.0060
2282.00,0.0059
2281.00,0.0059
2280.00,0.0059
2279.00,0.0059
2278.00,0.0058
2277.00,0.0058
2276.00,0.0058
2275.00,0.0058
2274.00,0.0059
2273.00,0.0059
2272.00,0.0059
2271.00,0.0058
2270.00,0.0057
2269.00,0.0056
2268.00,0.0055
2267.00,0.0055
2266.00,0.0055
2265.00,0.0055
2264.00,0.0055
2263.00,0.0055
2262.00,0.0055
2261.00,0.0056
2260.00,0.0056
2259.00,0.0057
2258.00,0.0057
2257.00,0.0057
2256.00,0.0057
2255.00,0.0056
2254.00,0.0055
2253.00,0.0055
2252.00,0.0055
2251.00,0.0055
2250.00,0.0055
2249.00,0.0055
2248.00,0.0055
2247.00,0.0054
2246.00,0.0053
2245.00,0.0053
2244.00,0.0053
2243.00,0.0053
2242.00,0.0054
2241.00,0.0054
2240.00,0.0054
2239.00,0.0054
2238.00,0.0053
2237.00,0.0053
2236.00,0.0052
2235.00,0.0052
2234.00,0.0051
2233.00,0.0051
2232.00,0.0051
2231.00,0.0052
2230.00,0.0052
2229.00,0.0052
2228.00,0.0052
2227.00,0.0053
2226.00,0.0054
2225.00,0.0054
2224.00,0.0053
2223.00,0.0053
2222.00,0.0053
2221.00,0.0053
2220.00,0.0053
2219.00,0.0052
2218.00,0.0052
2217.00,0.0053
2216.00,0.0053
2215.00,0.0054
2214.00,0.0053
2213.00,0.0053
2212.00,0.0053
2211.00,0.0053
2210.00,0.0052
2209.00,0.0052
2208.00,0.0050
2207.00,0.0049
2206.00,0.0049
2205.00,0.0050
2204.00,0.0051
2203.00,0.0050
2202.00,0.0049
2201.00,0.0049
2200.00,0.0049
2199.00,0.0050
2198.00,0.0051
2197.00,0.0052
2196.00,0.0052
2195.00,0.0052
2194.00,0.0052
2193.00,0.0051
2192.00,0.0051
2191.00,0.0051
2190.00,0.0052
2189.00,0.0053
2188.00,0.0052
2187.00,0.0051
2186.00,0.0050
2185.00,0.0050
2184.00,0.0050
2183.00,0.0050
2182.00,0.0050
2181.00,0.0050
2180.00,0.0050
2179.00,0.0050
2178.00,0.0049
2177.00,0.0049
2176.00,0.0048
2175.00,0.0049
2174.00,0.0050
2173.00,0.0051
2172.00,0.0051
2171.00,0.0049
2170.00,0.0047
2169.00,0.0046
2168.00,0.0046
2167.00,0.0048
2166.00,0.0051
2165.00,0.0053
2164.00,0.0054
2163.00,0.0053
2162.00,0.0050
2161.00,0.0046
2160.00,0.0041
2159.00,0.0038
2158.00,0.0037
2157.00,0.0038
2156.00,0.0040
2155.00,0.0042
2154.00,0.0044
2153.00,0.0045
2152.00,0.0045
2151.00,0.0046
2150.00,0.0046
2149.00,0.0045
2148.00,0.0044
2147.00,0.0043
2146.00,0.0042
2145.00,0.0042
2144.00,0.0042
2143.00,0.0043
2142.00,0.0043
2141.00,0.0043
2140.00,0.0042
2139.00,0.0041
2138.00,0.0040
2137.00,0.0039
2136.00,0.0038
2135.00,0.0037
2134.00,0.0037
2133.00,0.0038
2132.00,0.0039
2131.00,0.0039
2130.00,0.0040
2129.00,0.0040
2128.00,0.0040
2127.00,0.0040
2126.00,0.0039
2125.00,0.0039
2124.00,0.0039
2123.00,0.0040
2122.00,0.0040
2121.00,0.0041
2120.00,0.0043
2119.00,0.0044
2118.00,0.0045
2117.00,0.0045
2116.00,0.0044
2115.00,0.0043
2114.00,0.0042
2113.00,0.0041
2112.00,0.0041
2111.00,0.0040
2110.00,0.0040
2109.00,0.0040
2108.00,0.0041
2107.00,0.0041
2106.00,0.0041
2105.00,0.0040
2104.00,0.0040
2103.00,0.0040
2102.00,0.0040
2101.00,0.0040
2100.00,0.0040
2099.00,0.0041
2098.00,0.0041
2097.00,0.0041
2096.00,0.0040
2095.00,0.0039
2094.00,0.0038
2093.00,0.0039
2092.00,0.0040
2091.00,0.0041
2090.00,0.0041
2089.00,0.0041
2088.00,0.0040
2087.00,0.0040
2086.00,0.0040
2085.00,0.0040
2084.00,0.0040
2083.00,0.0039
2082.00,0.0039
2081.00,0.0039
2080.00,0.0039
2079.00,0.0039
2078.00,0.0040
2077.00,0.0040
2076.00,0.0041
2075.00,0.0041
2074.00,0.0040
2073.00,0.0039
2072.00,0.0038
2071.00,0.0038
2070.00,0.0039
2069.00,0.0039
2068.00,0.0040
2067.00,0.0040
2066.00,0.0040
2065.00,0.0040
2064.00,0.0039
2063.00,0.0038
2062.00,0.0038
2061.00,0.0039
2060.00,0.0039
2059.00,0.0040
2058.00,0.0039
2057.00,0.0039
2056.00,0.0038
2055.00,0.0038
2054.00,0.0038
2053.00,0.0039
2052.00,0.0040
2051.00,0.0041
2050.00,0.0041
2049.00,0.0041
2048.00,0.0040
2047.00,0.0040
2046.00,0.0040
2045.00,0.0041
2044.00,0.0040
2043.00,0.0040
2042.00,0.0040
2041.00,0.0041
2040.00,0.0041
2039.00,0.0041
2038.00,0.0040
2037.00,0.0040
2036.00,0.0040
2035.00,0.0040
2034.00,0.0039
2033.00,0.0037
2032.00,0.0036
2031.00,0.0036
2030.00,0.0037
2029.00,0.0039
2028.00,0.0039
2027.00,0.0039
2026.00,0.0038
2025.00,0.0036
2024.00,0.0036
2023.00,0.0035
2022.00,0.0035
2021.00,0.0035
2020.00,0.0035
2019.00,0.0035
2018.00,0.0034
2017.00,0.0034
2016.00,0.0035
2015.00,0.0036
2014.00,0.0038
2013.00,0.0038
2012.00,0.0037
2011.00,0.0035
2010.00,0.0033
2009.00,0.0032
2008.00,0.0032
2007.00,0.0033
2006.00,0.0034
2005.00,0.0035
2004.00,0.0035
2003.00,0.0036
2002.00,0.0036
2001.00,0.0036
2000.00,0.0036
1999.00,0.0036
1998.00,0.0036
1997.00,0.0037
1996.00,0.0037
1995.00,0.0036
1994.00,0.0036
1993.00,0.0036
1992.00,0.0036
1991.00,0.0035
1990.00,0.0034
1989.00,0.0032
1988.00,0.0031
1987.00,0.0031
1986.00,0.0032
1985.00,0.0033
1984.00,0.0035
1983.00,0.0037
1982.00,0.0040
1981.00,0.0041
1980.00,0.0041
1979.00,0.0039
1978.00,0.0037
1977.00,0.0037
1976.00,0.0037
1975.00,0.0036
1974.00,0.0035
1973.00,0.0034
1972.00,0.0034
1971.00,0.0035
1970.00,0.0036
1969.00,0.0036
1968.00,0.0035
1967.00,0.0033
1966.00,0.0031
1965.00,0.0030
1964.00,0.0030
1963.00,0.0031
1962.00,0.0031
1961.00,0.0032
1960.00,0.0031
1959.00,0.0030
1958.00,0.0028
1957.00,0.0027
1956.00,0.0026
1955.00,0.0026
1954.00,0.0026
1953.00,0.0027
1952.00,0.0028
1951.00,0.0027
1950.00,0.0026
1949.00,0.0025
1948.00,0.0026
1947.00,0.0026
1946.00,0.0028
1945.00,0.0029
1944.00,0.0029
1943.00,0.0028
1942.00,0.0027
1941.00,0.0027
1940.00,0.0028
1939.00,0.0029
1938.00,0.0029
1937.00,0.0029
1936.00,0.0029
1935.00,0.0028
1934.00,0.0028
1933.00,0.0028
1932.00,0.0028
1931.00,0.0028
1930.00,0.0028
1929.00,0.0029
1928.00,0.0029
1927.00,0.0029
1926.00,0.0029
1925.00,0.0031
1924.00,0.0031
1923.00,0.0030
1922.00,0.0028
1921.00,0.0028
1920.00,0.0029
1919.00,0.0029
1918.00,0.0028
1917.00,0.0026
1916.00,0.0025
1915.00,0.0025
1914.00,0.0025
1913.00,0.0025
1912.00,0.0025
1911.00,0.0025
1910.00,0.0024
1909.00,0.0024
1908.00,0.0024
1907.00,0.0024
1906.00,0.0024
1905.00,0.0025
1904.00,0.0025
1903.00,0.0024
1902.00,0.0024
1901.00,0.0023
1900.00,0.0023
1899.00,0.0023
1898.00,0.0023
1897.00,0.0024
1896.00,0.0024
1895.00,0.0023
1894.00,0.0022
1893.00,0.0022
1892.00,0.0022
1891.00,0.0022
1890.00,0.0022
1889.00,0.0021
1888.00,0.0021
1887.00,0.0022
1886.00,0.0023
1885.00,0.0024
1884.00,0.0024
1883.00,0.0023
1882.00,0.0022
1881.00,0.0022
1880.00,0.0021
1879.00,0.0021
1878.00,0.0021
1877.00,0.0021
1876.00,0.0021
1875.00,0.0021
1874.00,0.0021
1873.00,0.0022
1872.00,0.0023
1871.00,0.0023
1870.00,0.0021
1869.00,0.0018
1868.00,0.0016
1867.00,0.0016
1866.00,0.0018
1865.00,0.0020
1864.00,0.0021
1863.00,0.0021
1862.00,0.0020
1861.00,0.0020
1860.00,0.0020
1859.00,0.0020
1858.00,0.0020
1857.00,0.0020
1856.00,0.0020
1855.00,0.0021
1854.00,0.0021
1853.00,0.0020
1852.00,0.0020
1851.00,0.0020
1850.00,0.0019
1849.00,0.0019
1848.00,0.0019
1847.00,0.0020
1846.00,0.0020
1845.00,0.0020
1844.00,0.0018
1843.00,0.0016
1842.00,0.0016
1841.00,0.0018
1840.00,0.0019
1839.00,0.0019
1838.00,0.0019
1837.00,0.0019
1836.00,0.0019
1835.00,0.0019
1834.00,0.0019
1833.00,0.0021
1832.00,0.0021
1831.00,0.0021
1830.00,0.0019
1829.00,0.0018
1828.00,0.0019
1827.00,0.0020
1826.00,0.0021
1825.00,0.0020
1824.00,0.0019
1823.00,0.0019
1822.00,0.0020
1821.00,0.0020
1820.00,0.0021
1819.00,0.0021
1818.00,0.0021
1817.00,0.0022
1816.00,0.0023
1815.00,0.0023
1814.00,0.0023
1813.00,0.0023
1812.00,0.0023
1811.00,0.0023
1810.00,0.0022
1809.00,0.0023
1808.00,0.0024
1807.00,0.0025
1806.00,0.0026
1805.00,0.0028
1804.00,0.0029
1803.00,0.0031
1802.00,0.0031
1801.00,0.0031
1800.00,0.0031
1799.00,0.0031
1798.00,0.0032
1797.00,0.0034
1796.00,0.0036
1795.00,0.0038
1794.00,0.0039
1793.00,0.0039
1792.00,0.0039
1791.00,0.0039
1790.00,0.0040
1789.00,0.0042
1788.00,0.0045
1787.00,0.0047
1786.00,0.0048
1785.00,0.0049
1784.00,0.0050
1783.00,0.0052
1782.00,0.0054
1781.00,0.0055
1780.00,0.0056
1779.00,0.0058
1778.00,0.0060
1777.00,0.0062
1776.00,0.0064
1775.00,0.0067
1774.00,0.0070
1773.00,0.0071
1772.00,0.0070
1771.00,0.0071
1770.00,0.0072
1769.00,0.0075
1768.00,0.0076
1767.00,0.0077
1766.00,0.0079
1765.00,0.0082
1764.00,0.0085
1763.00,0.0087
1762.00,0.0087
1761.00,0.0087
1760.00,0.0089
1759.00,0.0091
1758.00,0.0092
1757.00,0.0093
1756.00,0.0094
1755.00,0.0095
1754.00,0.0098
1753.00,0.0099
1752.00,0.0100
1751.00,0.0100
1750.00,0.0101
1749.00,0.0103
1748.00,0.0106
1747.00,0.0108
1746.00,0.0111
1745.00,0.0113
1744.00,0.0115
1743.00,0.0118
1742.00,0.0120
1741.00,0.0123
1740.00,0.0125
1739.00,0.0126
1738.00,0.0129
1737.00,0.0134
1736.00,0.0138
1735.00,0.0140
1734.00,0.0142
1733.00,0.0142
1732.00,0.0144
1731.00,0.0147
1730.00,0.0150
1729.00,0.0153
1728.00,0.0156
1727.00,0.0159
1726.00,0.0162
1725.00,0.0164
1724.00,0.0166
1723.00,0.0168
1722.00,0.0170
1721.00,0.0173
1720.00,0.0175
1719.00,0.0176
1718.00,0.0177
1717.00,0.0179
1716.00,0.0180
1715.00,0.0182
1714.00,0.0185
1713.00,0.0187
1712.00,0.0189
1711.00,0.0190
1710.00,0.0191
1709.00,0.0192
1708.00,0.0194
1707.00,0.0195
1706.00,0.0196
1705.00,0.0196
1704.00,0.0198
1703.00,0.0200
1702.00,0.0202
1701.00,0.0202
1700.00,0.0201
1699.00,0.0201
1698.00,0.0202
1697.00,0.0205
1696.00,0.0205
1695.00,0.0202
1694.00,0.0201
1693.00,0.0203
1692.00,0.0204
1691.00,0.0204
1690.00,0.0204
1689.00,0.0204
1688.00,0.0205
1687.00,0.0206
1686.00,0.0205
1685.00,0.0204
1684.00,0.0205
1683.00,0.0204
1682.00,0.0205
1681.00,0.0207
1680.00,0.0208
1679.00,0.0209
1678.00,0.0210
1677.00,0.0212
1676.00,0.0214
1675.00,0.0215
1674.00,0.0215
1673.00,0.0216
1672.00,0.0218
1671.00,0.0219
1670.00,0.0220
1669.00,0.0221
1668.00,0.0222
1667.00,0.0223
1666.00,0.0225
1665.00,0.0227
1664.00,0.0228
1663.00,0.0230
1662.00,0.0232
1661.00,0.0233
1660.00,0.0234
1659.00,0.0235
1658.00,0.0235
1657.00,0.0236
1656.00,0.0237
1655.00,0.0237
1654.00,0.0240
1653.00,0.0246
1652.00,0.0244
1651.00,0.0244
1650.00,0.0248
1649.00,0.0250
1648.00,0.0253
1647.00,0.0258
1646.00,0.0261
1645.00,0.0263
1644.00,0.0265
1643.00,0.0267
1642.00,0.0269
1641.00,0.0270
1640.00,0.0270
1639.00,0.0271
1638.00,0.0271
1637.00,0.0274
1636.00,0.0279
1635.00,0.0284
1634.00,0.0286
1633.00,0.0288
1632.00,0.0290
1631.00,0.0291
1630.00,0.0293
1629.00,0.0295
1628.00,0.0297
1627.00,0.0300
1626.00,0.0302
1625.00,0.0304
1624.00,0.0306
1623.00,0.0309
1622.00,0.0310
1621.00,0.0311
1620.00,0.0313
1619.00,0.0314
1618.00,0.0316
1617.00,0.0319
1616.00,0.0321
1615.00,0.0322
1614.00,0.0324
1613.00,0.0326
1612.00,0.0327
1611.00,0.0328
1610.00,0.0330
1609.00,0.0332
1608.00,0.0334
1607.00,0.0336
1606.00,0.0337
1605.00,0.0338
1604.00,0.0339
1603.00,0.0341
1602.00,0.0343
1601.00,0.0344
1600.00,0.0346
1599.00,0.0347
1598.00,0.0347
1597.00,0.0348
1596.00,0.0349
1595.00,0.0350
1594.00,0.0350
1593.00,0.0351
1592.00,0.0351
1591.00,0.0352
1590.00,0.0353
1589.00,0.0354
1588.00,0.0354
1587.00,0.0354
1586.00,0.0354
1585.00,0.0354
1584.00,0.0354
1583.00,0.0353
1582.00,0.0353
1581.00,0.0352
1580.00,0.0352
1579.00,0.0352
1578.00,0.0351
1577.00,0.0351
1576.00,0.0351
1575.00,0.0350
1574.00,0.0350
1573.00,0.0349
1572.00,0.0348
1571.00,0.0347
1570.00,0.0346
1569.00,0.0345
1568.00,0.0344
1567.00,0.0343
1566.00,0.0342
1565.00,0.0340
1564.00,0.0339
1563.00,0.0339
1562.00,0.0337
1561.00,0.0331
1560.00,0.0327
1559.00,0.0331
1558.00,0.0331
1557.00,0.0329
1556.00,0.0327
1555.00,0.0326
1554.00,0.0324
1553.00,0.0321
1552.00,0.0318
1551.00,0.0316
1550.00,0.0314
1549.00,0.0311
1548.00,0.0310
1547.00,0.0307
1546.00,0.0304
1545.00,0.0301
1544.00,0.0299
1543.00,0.0297
1542.00,0.0294
1541.00,0.0292
1540.00,0.0290
1539.00,0.0287
1538.00,0.0284
1537.00,0.0284
1536.00,0.0283
1535.00,0.0281
1534.00,0.0278
1533.00,0.0276
1532.00,0.0274
1531.00,0.0271
1530.00,0.0269
1529.00,0.0266
1528.00,0.0264
1527.00,0.0262
1526.00,0.0260
1525.00,0.0259
1524.00,0.0258
1523.00,0.0257
1522.00,0.0255
1521.00,0.0254
1520.00,0.0253
1519.00,0.0252
1518.00,0.0252
1517.00,0.0251
1516.00,0.0250
1515.00,0.0249
1514.00,0.0249
1513.00,0.0248
1512.00,0.0246
1511.00,0.0245
1510.00,0.0243
1509.00,0.0242
1508.00,0.0241
1507.00,0.0242
1506.00,0.0241
1505.00,0.0239
1504.00,0.0239
1503.00,0.0239
1502.00,0.0239
1501.00,0.0238
1500.00,0.0237
1499.00,0.0237
1498.00,0.0237
1497.00,0.0237
1496.00,0.0238
1495.00,0.0238
1494.00,0.0238
1493.00,0.0238
1492.00,0.0238
1491.00,0.0237
1490.00,0.0237
1489.00,0.0238
1488.00,0.0239
1487.00,0.0240
1486.00,0.0240
1485.00,0.0241
1484.00,0.0241
1483.00,0.0242
1482.00,0.0242
1481.00,0.0243
1480.00,0.0244
1479.00,0.0245
1478.00,0.0245
1477.00,0.0246
1476.00,0.0247
1475.00,0.0248
1474.00,0.0250
1473.00,0.0252
1472.00,0.0255
1471.00,0.0256
1470.00,0.0258
1469.00,0.0260
1468.00,0.0262
1467.00,0.0264
1466.00,0.0266
1465.00,0.0269
1464.00,0.0270
1463.00,0.0271
1462.00,0.0271
1461.00,0.0271
1460.00,0.0271
1459.00,0.0270
1458.00,0.0271
1457.00,0.0274
1456.00,0.0275
1455.00,0.0275
1454.00,0.0277
1453.00,0.0279
1452.00,0.0281
1451.00,0.0282
1450.00,0.0283
1449.00,0.0284
1448.00,0.0285
1447.00,0.0285
1446.00,0.0286
1445.00,0.0286
1444.00,0.0287
1443.00,0.0288
1442.00,0.0288
1441.00,0.0289
1440.00,0.0290
1439.00,0.0291
1438.00,0.0291
1437.00,0.0293
1436.00,0.0294
1435.00,0.0294
1434.00,0.0295
1433.00,0.0295
1432.00,0.0296
1431.00,0.0297
1430.00,0.0298
1429.00,0.0299
1428.00,0.0300
1427.00,0.0300
1426.00,0.0300
1425.00,0.0300
1424.00,0.0301
1423.00,0.0303
1422.00,0.0304
1421.00,0.0304
1420.00,0.0305
1419.00,0.0306
1418.00,0.0307
1417.00,0.0307
1416.00,0.0308
1415.00,0.0309
1414.00,0.0309
1413.00,0.0310
1412.00,0.0310
1411.00,0.0311
1410.00,0.0311
1409.00,0.0312
1408.00,0.0312
1407.00,0.0312
1406.00,0.0312
1405.00,0.0312
1404.00,0.0313
1403.00,0.0314
1402.00,0.0315
1401.00,0.0315
1400.00,0.0315
1399.00,0.0316
1398.00,0.0316
1397.00,0.0317
1396.00,0.0317
1395.00,0.0319
1394.00,0.0319
1393.00,0.0319
1392.00,0.0319
1391.00,0.0320
1390.00,0.0320
1389.00,0.0320
1388.00,0.0321
1387.00,0.0322
1386.00,0.0322
1385.00,0.0323
1384.00,0.0323
1383.00,0.0323
1382.00,0.0323
1381.00,0.0323
1380.00,0.0322
1379.00,0.0322
1378.00,0.0322
1377.00,0.0322
1376.00,0.0322
1375.00,0.0322
1374.00,0.0322
1373.00,0.0322
1372.00,0.0322
1371.00,0.0321
1370.00,0.0321
1369.00,0.0321
1368.00,0.0321
1367.00,0.0320
1366.00,0.0319
1365.00,0.0318
1364.00,0.0318
1363.00,0.0318
1362.00,0.0318
1361.00,0.0318
1360.00,0.0318
1359.00,0.0318
1358.00,0.0318
1357.00,0.0317
1356.00,0.0316
1355.00,0.0315
1354.00,0.0314
1353.00,0.0313
1352.00,0.0313
1351.00,0.0312
1350.00,0.0311
1349.00,0.0311
1348.00,0.0310
1347.00,0.0310
1346.00,0.0310
1345.00,0.0309
1344.00,0.0309
1343.00,0.0307
1342.00,0.0306
1341.00,0.0305
1340.00,0.0304
1339.00,0.0304
1338.00,0.0304
1337.00,0.0305
1336.00,0.0304
1335.00,0.0304
1334.00,0.0304
1333.00,0.0303
1332.00,0.0303
1331.00,0.0303
1330.00,0.0302
1329.00,0.0302
1328.00,0.0302
1327.00,0.0302
1326.00,0.0302
1325.00,0.0301
1324.00,0.0301
1323.00,0.0300
1322.00,0.0300
1321.00,0.0299
1320.00,0.0299
1319.00,0.0298
1318.00,0.0299
1317.00,0.0299
1316.00,0.0300
1315.00,0.0300
1314.00,0.0299
1313.00,0.0299
1312.00,0.0300
1311.00,0.0300
1310.00,0.0300
1309.00,0.0300
1308.00,0.0300
1307.00,0.0300
1306.00,0.0300
1305.00,0.0301
1304.00,0.0301
1303.00,0.0301
1302.00,0.0302
1301.00,0.0302
1300.00,0.0303
1299.00,0.0303
1298.00,0.0303
1297.00,0.0303
1296.00,0.0303
1295.00,0.0303
1294.00,0.0304
1293.00,0.0304
1292.00,0.0304
1291.00,0.0305
1290.00,0.0306
1289.00,0.0307
1288.00,0.0308
1287.00,0.0308
1286.00,0.0309
1285.00,0.0309
1284.00,0.0309
1283.00,0.0309
1282.00,0.0309
1281.00,0.0310
1280.00,0.0311
1279.00,0.0311
1278.00,0.0311
1277.00,0.0311
1276.00,0.0312
1275.00,0.0312
1274.00,0.0313
1273.00,0.0313
1272.00,0.0313
1271.00,0.0313
1270.00,0.0313
1269.00,0.0313
1268.00,0.0313
1267.00,0.0312
1266.00,0.0312
1265.00,0.0311
1264.00,0.0310
1263.00,0.0309
1262.00,0.0309
1261.00,0.0310
1260.00,0.0310
1259.00,0.0311
1258.00,0.0312
1257.00,0.0313
1256.00,0.0313
1255.00,0.0314
1254.00,0.0314
1253.00,0.0314
1252.00,0.0315
1251.00,0.0315
1250.00,0.0316
1249.00,0.0316
1248.00,0.0315
1247.00,0.0315
1246.00,0.0315
1245.00,0.0315
1244.00,0.0315
1243.00,0.0315
1242.00,0.0315
1241.00,0.0315
1240.00,0.0314
1239.00,0.0314
1238.00,0.0314
1237.00,0.0314
1236.00,0.0314
1235.00,0.0314
1234.00,0.0313
1233.00,0.0313
1232.00,0.0313
1231.00,0.0313
1230.00,0.0312
1229.00,0.0312
1228.00,0.0311
1227.00,0.0311
1226.00,0.0311
1225.00,0.0311
1224.00,0.0311
1223.00,0.0311
1222.00,0.0311
1221.00,0.0310
1220.00,0.0309
1219.00,0.0309
1218.00,0.0308
1217.00,0.0308
1216.00,0.0308
1215.00,0.0308
1214.00,0.0308
1213.00,0.0307
1212.00,0.0307
1211.00,0.0306
1210.00,0.0306
1209.00,0.0306
1208.00,0.0305
1207.00,0.0305
1206.00,0.0304
1205.00,0.0303
1204.00,0.0303
1203.00,0.0303
1202.00,0.0302
1201.00,0.0302
1200.00,0.0301
1199.00,0.0301
1198.00,0.0301
1197.00,0.0300
1196.00,0.0299
1195.00,0.0298
1194.00,0.0297
1193.00,0.0296
1192.00,0.0295
1191.00,0.0295
1190.00,0.0295
1189.00,0.0295
1188.00,0.0296
1187.00,0.0296
1186.00,0.0295
1185.00,0.0294
1184.00,0.0293
1183.00,0.0293
1182.00,0.0292
1181.00,0.0292
1180.00,0.0292
1179.00,0.0293
1178.00,0.0294
1177.00,0.0294
1176.00,0.0295
1175.00,0.0295
1174.00,0.0295
1173.00,0.0294
1172.00,0.0294
1171.00,0.0293
1170.00,0.0292
1169.00,0.0292
1168.00,0.0292
1167.00,0.0292
1166.00,0.0291
1165.00,0.0290
1164.00,0.0290
1163.00,0.0289
1162.00,0.0289
1161.00,0.0289
1160.00,0.0289
1159.00,0.0289
1158.00,0.0289
1157.00,0.0289
1156.00,0.0288
1155.00,0.0288
1154.00,0.0288
1153.00,0.0287
1152.00,0.0287
1151.00,0.0287
1150.00,0.0286
1149.00,0.0285
1148.00,0.0285
1147.00,0.0286
1146.00,0.0287
1145.00,0.0287
1144.00,0.0287
1143.00,0.0286
1142.00,0.0285
1141.00,0.0284
1140.00,0.0283
1139.00,0.0283
1138.00,0.0283
1137.00,0.0283
1136.00,0.0283
1135.00,0.0283
1134.00,0.0283
1133.00,0.0284
1132.00,0.0284
1131.00,0.0284
1130.00,0.0284
1129.00,0.0284
1128.00,0.0285
1127.00,0.0285
1126.00,0.0285
1125.00,0.0285
1124.00,0.0285
1123.00,0.0285
1122.00,0.0284
1121.00,0.0284
1120.00,0.0284
1119.00,0.0285
1118.00,0.0286
1117.00,0.0286
1116.00,0.0286
1115.00,0.0286
1114.00,0.0285
1113.00,0.0284
1112.00,0.0283
1111.00,0.0283
1110.00,0.0283
1109.00,0.0283
1108.00,0.0283
1107.00,0.0283
1106.00,0.0284
1105.00,0.0284
1104.00,0.0284
1103.00,0.0284
1102.00,0.0283
1101.00,0.0283
1100.00,0.0283
1099.00,0.0283
1098.00,0.0283
1097.00,0.0282
1096.00,0.0282
1095.00,0.0282
1094.00,0.0283
1093.00,0.0284
1092.00,0.0285
1091.00,0.0286
1090.00,0.0285
1089.00,0.0285
1088.00,0.0285
1087.00,0.0286
1086.00,0.0286
1085.00,0.0286
1084.00,0.0286
1083.00,0.0286
1082.00,0.0287
1081.00,0.0287
1080.00,0.0286
1079.00,0.0285
1078.00,0.0285
1077.00,0.0286
1076.00,0.0287
1075.00,0.0288
1074.00,0.0289
1073.00,0.0288
1072.00,0.0288
1071.00,0.0287
1070.00,0.0288
1069.00,0.0289
1068.00,0.0290
1067.00,0.0290
1066.00,0.0289
1065.00,0.0289
1064.00,0.0290
1063.00,0.0291
1062.00,0.0291
1061.00,0.0290
1060.00,0.0289
1059.00,0.0289
1058.00,0.0289
1057.00,0.0290
1056.00,0.0289
1055.00,0.0289
1054.00,0.0289
1053.00,0.0290
1052.00,0.0292
1051.00,0.0294
1050.00,0.0295
1049.00,0.0295
1048.00,0.0295
1047.00,0.0295
1046.00,0.0295
1045.00,0.0294
1044.00,0.0294
1043.00,0.0294
1042.00,0.0295
1041.00,0.0295
1040.00,0.0295
1039.00,0.0296
1038.00,0.0296
1037.00,0.0296
1036.00,0.0296
1035.00,0.0295
1034.00,0.0296
1033.00,0.0296
1032.00,0.0295
1031.00,0.0295
1030.00,0.0294
1029.00,0.0293
1028.00,0.0293
1027.00,0.0293
1026.00,0.0292
1025.00,0.0291
1024.00,0.0291
1023.00,0.0290
1022.00,0.0290
1021.00,0.0289
1020.00,0.0288
1019.00,0.0288
1018.00,0.0288
1017.00,0.0288
1016.00,0.0289
1015.00,0.0288
1014.00,0.0288
1013.00,0.0287
1012.00,0.0288
1011.00,0.0288
1010.00,0.0288
1009.00,0.0287
1008.00,0.0286
1007.00,0.0286
1006.00,0.0287
1005.00,0.0286
1004.00,0.0286
1003.00,0.0285
1002.00,0.0284
1001.00,0.0284
1000.00,0.0284
999.00,0.0283
998.00,0.0283
997.00,0.0283
996.00,0.0282
995.00,0.0281
994.00,0.0280
993.00,0.0281
992.00,0.0281
991.00,0.0281
990.00,0.0280
989.00,0.0278
988.00,0.0278
987.00,0.0278
986.00,0.0279
985.00,0.0279
984.00,0.0279
983.00,0.0278
982.00,0.0279
981.00,0.0279
980.00,0.0280
979.00,0.0281
978.00,0.0281
977.00,0.0280
976.00,0.0280
975.00,0.0279
974.00,0.0278
973.00,0.0277
972.00,0.0276
971.00,0.0276
970.00,0.0276
969.00,0.0278
968.00,0.0279
967.00,0.0279
966.00,0.0279
965.00,0.0280
964.00,0.0280
963.00,0.0280
962.00,0.0279
961.00,0.0277
960.00,0.0276
959.00,0.0276
958.00,0.0275
957.00,0.0275
956.00,0.0275
955.00,0.0277
954.00,0.0278
953.00,0.0279
952.00,0.0279
951.00,0.0278
950.00,0.0278
949.00,0.0278
948.00,0.0279
947.00,0.0279
946.00,0.0280
945.00,0.0282
944.00,0.0283
943.00,0.0283
942.00,0.0283
941.00,0.0283
940.00,0.0283
939.00,0.0282
938.00,0.0282
937.00,0.0282
936.00,0.0282
935.00,0.0282
934.00,0.0281
933.00,0.0281
932.00,0.0281
931.00,0.0281
930.00,0.0281
929.00,0.0281
928.00,0.0282
927.00,0.0282
926.00,0.0283
925.00,0.0283
924.00,0.0284
923.00,0.0285
922.00,0.0286
921.00,0.0286
920.00,0.0285
919.00,0.0286
918.00,0.0287
917.00,0.0289
916.00,0.0290
915.00,0.0289
914.00,0.0288
913.00,0.0287
912.00,0.0288
911.00,0.0288
910.00,0.0289
909.00,0.0289
908.00,0.0290
907.00,0.0290
906.00,0.0291
905.00,0.0291
904.00,0.0292
903.00,0.0292
902.00,0.0292
901.00,0.0292
900.00,0.0293
899.00,0.0293
898.00,0.0294
897.00,0.0294
896.00,0.0293
895.00,0.0293
894.00,0.0293
893.00,0.0293
892.00,0.0294
891.00,0.0294
890.00,0.0294
889.00,0.0294
888.00,0.0295
887.00,0.0296
886.00,0.0297
885.00,0.0297
884.00,0.0298
883.00,0.0298
882.00,0.0299
881.00,0.0301
880.00,0.0303
879.00,0.0303
878.00,0.0302
877.00,0.0301
876.00,0.0300
875.00,0.0300
874.00,0.0301
873.00,0.0302
872.00,0.0302
871.00,0.0302
870.00,0.0302
869.00,0.0302
868.00,0.0303
867.00,0.0305
866.00,0.0305
865.00,0.0305
864.00,0.0305
863.00,0.0305
862.00,0.0306
861.00,0.0308
860.00,0.0309
859.00,0.0310
858.00,0.0311
857.00,0.0311
856.00,0.0313
855.00,0.0314
854.00,0.0315
853.00,0.0315
852.00,0.0314
851.00,0.0313
850.00,0.0311
849.00,0.0310
848.00,0.0311
847.00,0.0314
846.00,0.0316
845.00,0.0318
844.00,0.0319
843.00,0.0320
842.00,0.0322
841.00,0.0323
840.00,0.0324
839.00,0.0325
838.00,0.0328
837.00,0.0331
836.00,0.0333
835.00,0.0332
834.00,0.0330
833.00,0.0330
832.00,0.0332
831.00,0.0334
830.00,0.0337
829.00,0.0338
828.00,0.0337
827.00,0.0335
826.00,0.0333
825.00,0.0331
824.00,0.0331
823.00,0.0333
822.00,0.0336
821.00,0.0338
820.00,0.0340
819.00,0.0341
818.00,0.0341
817.00,0.0341
816.00,0.0342
815.00,0.0341
814.00,0.0341
813.00,0.0340
812.00,0.0341
811.00,0.0344
810.00,0.0346
809.00,0.0347
808.00,0.0347
807.00,0.0346
806.00,0.0346
805.00,0.0347
804.00,0.0346
803.00,0.0344
802.00,0.0343
801.00,0.0344
800.00,0.0346
799.00,0.0347
798.00,0.0346
797.00,0.0347
796.00,0.0350
795.00,0.0353
794.00,0.0355
793.00,0.0356
792.00,0.0356
791.00,0.0357
790.00,0.0359
789.00,0.0361
788.00,0.0362
787.00,0.0362
786.00,0.0362
785.00,0.0364
784.00,0.0366
783.00,0.0367
782.00,0.0367
781.00,0.0368
780.00,0.0368
779.00,0.0368
778.00,0.0367
777.00,0.0366
776.00,0.0366
775.00,0.0368
774.00,0.0371
773.00,0.0375
772.00,0.0377
771.00,0.0379
770.00,0.0379
769.00,0.0378
768.00,0.0376
767.00,0.0374
766.00,0.0373
765.00,0.0374
764.00,0.0375
763.00,0.0376
762.00,0.0378
761.00,0.0380
760.00,0.0382
759.00,0.0385
758.00,0.0388
757.00,0.0390
756.00,0.0390
755.00,0.0389
754.00,0.0388
753.00,0.0387
752.00,0.0387
751.00,0.0388
750.00,0.0389
749.00,0.0390
748.00,0.0390
747.00,0.0391
746.00,0.0391
745.00,0.0391
744.00,0.0392
743.00,0.0393
742.00,0.0393
741.00,0.0393
740.00,0.0392
739.00,0.0392
738.00,0.0392
737.00,0.0392
736.00,0.0392
735.00,0.0393
734.00,0.0394
733.00,0.0396
732.00,0.0398
731.00,0.0400
730.00,0.0401
729.00,0.0402
728.00,0.0401
727.00,0.0399
726.00,0.0399
725.00,0.0401
724.00,0.0404
723.00,0.0407
722.00,0.0408
721.00,0.0408
720.00,0.0409
719.00,0.0410
718.00,0.0412
717.00,0.0413
716.00,0.0414
715.00,0.0415
714.00,0.0417
713.00,0.0422
712.00,0.0427
711.00,0.0429
710.00,0.0426
709.00,0.0423
708.00,0.0423
707.00,0.0426
706.00,0.0430
705.00,0.0434
704.00,0.0435
703.00,0.0436
702.00,0.0436
701.00,0.0438
700.00,0.0440
699.00,0.0443
698.00,0.0446
697.00,0.0449
696.00,0.0449
695.00,0.0446
694.00,0.0442
693.00,0.0441
692.00,0.0443
691.00,0.0445
690.00,0.0445
689.00,0.0443
688.00,0.0441
687.00,0.0443
686.00,0.0447
685.00,0.0451
684.00,0.0453
683.00,0.0454
682.00,0.0456
681.00,0.0461
680.00,0.0465
679.00,0.0468
678.00,0.0472
677.00,0.0476
676.00,0.0480
675.00,0.0482
674.00,0.0481
673.00,0.0477
672.00,0.0474
671.00,0.0469
670.00,0.0465
669.00,0.0466
668.00,0.0476
667.00,0.0489
666.00,0.0498
665.00,0.0499
664.00,0.0495
663.00,0.0490
662.00,0.0487
661.00,0.0492
660.00,0.0502
659.00,0.0510
658.00,0.0509
657.00,0.0500
656.00,0.0496
655.00,0.0500
654.00,0.0509
653.00,0.0514
652.00,0.0513
651.00,0.0508
650.00,0.0505
