Created as New Dataset,
cm-1,A
4000.00,0.0042
3999.00,0.0042
3998.00,0.0042
3997.00,0.0042
3996.00,0.0042
3995.00,0.0042
3994.00,0.0042
3993.00,0.0042
3992.00,0.0042
3991.00,0.0042
3990.00,0.0042
3989.00,0.0041
3988.00,0.0041
3987.00,0.0041
3986.00,0.0041
3985.00,0.0041
3984.00,0.0042
3983.00,0.0042
3982.00,0.0042
3981.00,0.0042
3980.00,0.0042
3979.00,0.0042
3978.00,0.0042
3977.00,0.0042
3976.00,0.0042
3975.00,0.0041
3974.00,0.0041
3973.00,0.0041
3972.00,0.0041
3971.00,0.0041
3970.00,0.0040
3969.00,0.0040
3968.00,0.0040
3967.00,0.0039
3966.00,0.0039
3965.00,0.0040
3964.00,0.0040
3963.00,0.0040
3962.00,0.0041
3961.00,0.0041
3960.00,0.0041
3959.00,0.0041
3958.00,0.0041
3957.00,0.0041
3956.00,0.0040
3955.00,0.0040
3954.00,0.0040
3953.00,0.0039
3952.00,0.0039
3951.00,0.0039
3950.00,0.0039
3949.00,0.0039
3948.00,0.0039
3947.00,0.0038
3946.00,0.0038
3945.00,0.0038
3944.00,0.0039
3943.00,0.0039
3942.00,0.0039
3941.00,0.0039
3940.00,0.0040
3939.00,0.0040
3938.00,0.0040
3937.00,0.0040
3936.00,0.0039
3935.00,0.0039
3934.00,0.0038
3933.00,0.0038
3932.00,0.0038
3931.00,0.0038
3930.00,0.0038
3929.00,0.0038
3928.00,0.0037
3927.00,0.0037
3926.00,0.0037
3925.00,0.0037
3924.00,0.0036
3923.00,0.0036
3922.00,0.0036
3921.00,0.0036
3920.00,0.0036
3919.00,0.0037
3918.00,0.0038
3917.00,0.0038
3916.00,0.0038
3915.00,0.0038
3914.00,0.0038
3913.00,0.0039
3912.00,0.0039
3911.00,0.0039
3910.00,0.0038
3909.00,0.0037
3908.00,0.0035
3907.00,0.0033
3906.00,0.0032
3905.00,0.0031
3904.00,0.0031
3903.00,0.0031
3902.00,0.0032
3901.00,0.0033
3900.00,0.0034
3899.00,0.0034
3898.00,0.0035
3897.00,0.0035
3896.00,0.0036
3895.00,0.0036
3894.00,0.0036
3893.00,0.0036
3892.00,0.0036
3891.00,0.0035
3890.00,0.0033
3889.00,0.0033
3888.00,0.0034
3887.00,0.0036
3886.00,0.0036
3885.00,0.0034
3884.00,0.0032
3883.00,0.0032
3882.00,0.0034
3881.00,0.0035
3880.00,0.0035
3879.00,0.0033
3878.00,0.0033
3877.00,0.0034
3876.00,0.0035
3875.00,0.0034
3874.00,0.0032
3873.00,0.0030
3872.00,0.0030
3871.00,0.0032
3870.00,0.0032
3869.00,0.0030
3868.00,0.0029
3867.00,0.0030
3866.00,0.0032
3865.00,0.0032
3864.00,0.0032
3863.00,0.0032
3862.00,0.0033
3861.00,0.0034
3860.00,0.0033
3859.00,0.0032
3858.00,0.0030
3857.00,0.0027
3856.00,0.0024
3855.00,0.0025
3854.00,0.0028
3853.00,0.0027
3852.00,0.0023
3851.00,0.0022
3850.00,0.0026
3849.00,0.0030
3848.00,0.0032
3847.00,0.0033
3846.00,0.0032
3845.00,0.0032
3844.00,0.0030
3843.00,0.0029
3842.00,0.0027
3841.00,0.0027
3840.00,0.0028
3839.00,0.0029
3838.00,0.0028
3837.00,0.0027
3836.00,0.0027
3835.00,0.0027
3834.00,0.0029
3833.00,0.0031
3832.00,0.0032
3831.00,0.0032
3830.00,0.0032
3829.00,0.0033
3828.00,0.0034
3827.00,0.0033
3826.00,0.0031
3825.00,0.0029
3824.00,0.0027
3823.00,0.0028
3822.00,0.0028
3821.00,0.0027
3820.00,0.0024
3819.00,0.0024
3818.00,0.0027
3817.00,0.0031
3816.00,0.0032
3815.00,0.0031
3814.00,0.0031
3813.00,0.0033
3812.00,0.0034
3811.00,0.0033
3810.00,0.0032
3809.00,0.0032
3808.00,0.0033
3807.00,0.0032
3806.00,0.0028
3805.00,0.0026
3804.00,0.0027
3803.00,0.0029
3802.00,0.0030
3801.00,0.0028
3800.00,0.0026
3799.00,0.0027
3798.00,0.0030
3797.00,0.0032
3796.00,0.0033
3795.00,0.0033
3794.00,0.0035
3793.00,0.0036
3792.00,0.0037
3791.00,0.0037
3790.00,0.0037
3789.00,0.0036
3788.00,0.0036
3787.00,0.0035
3786.00,0.0035
3785.00,0.0034
3784.00,0.0034
3783.00,0.0033
3782.00,0.0032
3781.00,0.0032
3780.00,0.0033
3779.00,0.0033
3778.00,0.0033
3777.00,0.0034
3776.00,0.0035
3775.00,0.0035
3774.00,0.0034
3773.00,0.0032
3772.00,0.0031
3771.00,0.0031
3770.00,0.0031
3769.00,0.0030
3768.00,0.0031
3767.00,0.0032
3766.00,0.0033
3765.00,0.0033
3764.00,0.0032
3763.00,0.0032
3762.00,0.0033
3761.00,0.0032
3760.00,0.0032
3759.00,0.0031
3758.00,0.0030
3757.00,0.0029
3756.00,0.0028
3755.00,0.0027
3754.00,0.0025
3753.00,0.0023
3752.00,0.0023
3751.00,0.0025
3750.00,0.0025
3749.00,0.0023
3748.00,0.0021
3747.00,0.0022
3746.00,0.0025
3745.00,0.0027
3744.00,0.0026
3743.00,0.0022
3742.00,0.0022
3741.00,0.0024
3740.00,0.0025
3739.00,0.0023
3738.00,0.0021
3737.00,0.0021
3736.00,0.0021
3735.00,0.0021
3734.00,0.0022
3733.00,0.0024
3732.00,0.0025
3731.00,0.0025
3730.00,0.0026
3729.00,0.0028
3728.00,0.0029
3727.00,0.0029
3726.00,0.0028
3725.00,0.0027
3724.00,0.0027
3723.00,0.0028
3722.00,0.0028
3721.00,0.0028
3720.00,0.0029
3719.00,0.0030
3718.00,0.0031
3717.00,0.0030
3716.00,0.0029
3715.00,0.0028
3714.00,0.0027
3713.00,0.0026
3712.00,0.0026
3711.00,0.0026
3710.00,0.0027
3709.00,0.0028
3708.00,0.0029
3707.00,0.0030
3706.00,0.0031
3705.00,0.0031
3704.00,0.0031
3703.00,0.0031
3702.00,0.0032
3701.00,0.0032
3700.00,0.0032
3699.00,0.0032
3698.00,0.0034
3697.00,0.0034
3696.00,0.0033
3695.00,0.0032
3694.00,0.0030
3693.00,0.0028
3692.00,0.0027
3691.00,0.0026
3690.00,0.0028
3689.00,0.0029
3688.00,0.0028
3687.00,0.0028
3686.00,0.0030
3685.00,0.0032
3684.00,0.0034
3683.00,0.0034
3682.00,0.0033
3681.00,0.0031
3680.00,0.0028
3679.00,0.0024
3678.00,0.0022
3677.00,0.0024
3676.00,0.0026
3675.00,0.0024
3674.00,0.0021
3673.00,0.0021
3672.00,0.0024
3671.00,0.0027
3670.00,0.0029
3669.00,0.0029
3668.00,0.0030
3667.00,0.0033
3666.00,0.0036
3665.00,0.0037
3664.00,0.0038
3663.00,0.0038
3662.00,0.0038
3661.00,0.0037
3660.00,0.0036
3659.00,0.0035
3658.00,0.0036
3657.00,0.0037
3656.00,0.0037
3655.00,0.0035
3654.00,0.0034
3653.00,0.0032
3652.00,0.0029
3651.00,0.0026
3650.00,0.0026
3649.00,0.0029
3648.00,0.0030
3647.00,0.0031
3646.00,0.0033
3645.00,0.0036
3644.00,0.0038
3643.00,0.0040
3642.00,0.0041
3641.00,0.0041
3640.00,0.0042
3639.00,0.0042
3638.00,0.0042
3637.00,0.0042
3636.00,0.0042
3635.00,0.0042
3634.00,0.0040
3633.00,0.0037
3632.00,0.0035
3631.00,0.0035
3630.00,0.0037
3629.00,0.0039
3628.00,0.0039
3627.00,0.0038
3626.00,0.0039
3625.00,0.0041
3624.00,0.0042
3623.00,0.0041
3622.00,0.0040
3621.00,0.0040
3620.00,0.0041
3619.00,0.0041
3618.00,0.0041
3617.00,0.0041
3616.00,0.0041
3615.00,0.0042
3614.00,0.0042
3613.00,0.0042
3612.00,0.0042
3611.00,0.0043
3610.00,0.0044
3609.00,0.0045
3608.00,0.0046
3607.00,0.0045
3606.00,0.0046
3605.00,0.0047
3604.00,0.0048
3603.00,0.0048
3602.00,0.0048
3601.00,0.0047
3600.00,0.0047
3599.00,0.0046
3598.00,0.0045
3597.00,0.0045
3596.00,0.0045
3595.00,0.0046
3594.00,0.0047
3593.00,0.0047
3592.00,0.0046
3591.00,0.0045
3590.00,0.0045
3589.00,0.0046
3588.00,0.0047
3587.00,0.0048
3586.00,0.0049
3585.00,0.0050
3584.00,0.0052
3583.00,0.0053
3582.00,0.0054
3581.00,0.0054
3580.00,0.0054
3579.00,0.0055
3578.00,0.0055
3577.00,0.0054
3576.00,0.0054
3575.00,0.0054
3574.00,0.0053
3573.00,0.0053
3572.00,0.0052
3571.00,0.0051
3570.00,0.0049
3569.00,0.0048
3568.00,0.0049
3567.00,0.0050
3566.00,0.0051
3565.00,0.0052
3564.00,0.0054
3563.00,0.0055
3562.00,0.0056
3561.00,0.0056
3560.00,0.0056
3559.00,0.0057
3558.00,0.0057
3557.00,0.0057
3556.00,0.0056
3555.00,0.0056
3554.00,0.0056
3553.00,0.0057
3552.00,0.0057
3551.00,0.0057
3550.00,0.0057
3549.00,0.0057
3548.00,0.0057
3547.00,0.0057
3546.00,0.0057
3545.00,0.0058
3544.00,0.0058
3543.00,0.0059
3542.00,0.0059
3541.00,0.0059
3540.00,0.0060
3539.00,0.0060
3538.00,0.0060
3537.00,0.0061
3536.00,0.0061
3535.00,0.0061
3534.00,0.0060
3533.00,0.0060
3532.00,0.0059
3531.00,0.0059
3530.00,0.0059
3529.00,0.0059
3528.00,0.0059
3527.00,0.0059
3526.00,0.0060
3525.00,0.0060
3524.00,0.0061
3523.00,0.0061
3522.00,0.0062
3521.00,0.0062
3520.00,0.0063
3519.00,0.0063
3518.00,0.0063
3517.00,0.0064
3516.00,0.0064
3515.00,0.0064
3514.00,0.0064
3513.00,0.0064
3512.00,0.0064
3511.00,0.0064
3510.00,0.0064
3509.00,0.0064
3508.00,0.0064
3507.00,0.0064
3506.00,0.0063
3505.00,0.0063
3504.00,0.0064
3503.00,0.0064
3502.00,0.0065
3501.00,0.0066
3500.00,0.0066
3499.00,0.0066
3498.00,0.0066
3497.00,0.0066
3496.00,0.0066
3495.00,0.0067
3494.00,0.0067
3493.00,0.0067
3492.00,0.0066
3491.00,0.0066
3490.00,0.0066
3489.00,0.0066
3488.00,0.0066
3487.00,0.0066
3486.00,0.0066
3485.00,0.0067
3484.00,0.0067
3483.00,0.0068
3482.00,0.0068
3481.00,0.0068
3480.00,0.0069
3479.00,0.0069
3478.00,0.0069
3477.00,0.0070
3476.00,0.0070
3475.00,0.0070
3474.00,0.0069
3473.00,0.0070
3472.00,0.0070
3471.00,0.0070
3470.00,0.0070
3469.00,0.0070
3468.00,0.0070
3467.00,0.0070
3466.00,0.0070
3465.00,0.0071
3464.00,0.0071
3463.00,0.0071
3462.00,0.0071
3461.00,0.0070
3460.00,0.0070
3459.00,0.0070
3458.00,0.0070
3457.00,0.0071
3456.00,0.0071
3455.00,0.0072
3454.00,0.0072
3453.00,0.0072
3452.00,0.0072
3451.00,0.0072
3450.00,0.0072
3449.00,0.0071
3448.00,0.0071
3447.00,0.0071
3446.00,0.0070
3445.00,0.0070
3444.00,0.0071
3443.00,0.0071
3442.00,0.0071
3441.00,0.0071
3440.00,0.0071
3439.00,0.0071
3438.00,0.0071
3437.00,0.0071
3436.00,0.0071
3435.00,0.0072
3434.00,0.0072
3433.00,0.0072
3432.00,0.0072
3431.00,0.0072
3430.00,0.0072
3429.00,0.0072
3428.00,0.0072
3427.00,0.0072
3426.00,0.0072
3425.00,0.0073
3424.00,0.0072
3423.00,0.0072
3422.00,0.0072
3421.00,0.0072
3420.00,0.0073
3419.00,0.0073
3418.00,0.0073
3417.00,0.0074
3416.00,0.0074
3415.00,0.0074
3414.00,0.0074
3413.00,0.0074
3412.00,0.0074
3411.00,0.0074
3410.00,0.0074
3409.00,0.0074
3408.00,0.0074
3407.00,0.0075
3406.00,0.0075
3405.00,0.0076
3404.00,0.0076
3403.00,0.0076
3402.00,0.0076
3401.00,0.0075
3400.00,0.0075
3399.00,0.0074
3398.00,0.0075
3397.00,0.0075
3396.00,0.0075
3395.00,0.0075
3394.00,0.0075
3393.00,0.0075
3392.00,0.0075
3391.00,0.0075
3390.00,0.0075
3389.00,0.0075
3388.00,0.0074
3387.00,0.0074
3386.00,0.0075
3385.00,0.0075
3384.00,0.0075
3383.00,0.0075
3382.00,0.0075
3381.00,0.0075
3380.00,0.0075
3379.00,0.0075
3378.00,0.0075
3377.00,0.0075
3376.00,0.0075
3375.00,0.0075
3374.00,0.0075
3373.00,0.0076
3372.00,0.0076
3371.00,0.0076
3370.00,0.0076
3369.00,0.0076
3368.00,0.0075
3367.00,0.0076
3366.00,0.0076
3365.00,0.0077
3364.00,0.0077
3363.00,0.0077
3362.00,0.0077
3361.00,0.0077
3360.00,0.0076
3359.00,0.0076
3358.00,0.0076
3357.00,0.0077
3356.00,0.0077
3355.00,0.0077
3354.00,0.0077
3353.00,0.0076
3352.00,0.0076
3351.00,0.0076
3350.00,0.0076
3349.00,0.0076
3348.00,0.0076
3347.00,0.0076
3346.00,0.0076
3345.00,0.0076
3344.00,0.0076
3343.00,0.0076
3342.00,0.0076
3341.00,0.0076
3340.00,0.0076
3339.00,0.0076
3338.00,0.0076
3337.00,0.0077
3336.00,0.0077
3335.00,0.0077
3334.00,0.0077
3333.00,0.0077
3332.00,0.0077
3331.00,0.0077
3330.00,0.0077
3329.00,0.0077
3328.00,0.0077
3327.00,0.0077
3326.00,0.0077
3325.00,0.0077
3324.00,0.0078
3323.00,0.0078
3322.00,0.0078
3321.00,0.0078
3320.00,0.0077
3319.00,0.0077
3318.00,0.0077
3317.00,0.0076
3316.00,0.0077
3315.00,0.0077
3314.00,0.0077
3313.00,0.0076
3312.00,0.0076
3311.00,0.0076
3310.00,0.0076
3309.00,0.0077
3308.00,0.0077
3307.00,0.0077
3306.00,0.0078
3305.00,0.0078
3304.00,0.0078
3303.00,0.0078
3302.00,0.0078
3301.00,0.0077
3300.00,0.0077
3299.00,0.0077
3298.00,0.0077
3297.00,0.0077
3296.00,0.0077
3295.00,0.0077
3294.00,0.0077
3293.00,0.0077
3292.00,0.0077
3291.00,0.0078
3290.00,0.0078
3289.00,0.0078
3288.00,0.0078
3287.00,0.0077
3286.00,0.0077
3285.00,0.0077
3284.00,0.0078
3283.00,0.0077
3282.00,0.0077
3281.00,0.0077
3280.00,0.0077
3279.00,0.0077
3278.00,0.0077
3277.00,0.0077
3276.00,0.0077
3275.00,0.0077
3274.00,0.0077
3273.00,0.0077
3272.00,0.0078
3271.00,0.0078
3270.00,0.0078
3269.00,0.0078
3268.00,0.0078
3267.00,0.0078
3266.00,0.0077
3265.00,0.0077
3264.00,0.0077
3263.00,0.0077
3262.00,0.0077
3261.00,0.0077
3260.00,0.0078
3259.00,0.0078
3258.00,0.0078
3257.00,0.0078
3256.00,0.0078
3255.00,0.0078
3254.00,0.0077
3253.00,0.0077
3252.00,0.0077
3251.00,0.0077
3250.00,0.0077
3249.00,0.0077
3248.00,0.0078
3247.00,0.0078
3246.00,0.0079
3245.00,0.0079
3244.00,0.0079
3243.00,0.0078
3242.00,0.0078
3241.00,0.0078
3240.00,0.0078
3239.00,0.0078
3238.00,0.0078
3237.00,0.0078
3236.00,0.0078
3235.00,0.0078
3234.00,0.0078
3233.00,0.0079
3232.00,0.0079
3231.00,0.0080
3230.00,0.0080
3229.00,0.0079
3228.00,0.0079
3227.00,0.0079
3226.00,0.0079
3225.00,0.0080
3224.00,0.0080
3223.00,0.0080
3222.00,0.0080
3221.00,0.0080
3220.00,0.0079
3219.00,0.0079
3218.00,0.0079
3217.00,0.0079
3216.00,0.0078
3215.00,0.0078
3214.00,0.0078
3213.00,0.0079
3212.00,0.0079
3211.00,0.0079
3210.00,0.0080
3209.00,0.0079
3208.00,0.0079
3207.00,0.0080
3206.00,0.0080
3205.00,0.0080
3204.00,0.0080
3203.00,0.0080
3202.00,0.0080
3201.00,0.0080
3200.00,0.0080
3199.00,0.0080
3198.00,0.0080
3197.00,0.0080
3196.00,0.0080
3195.00,0.0079
3194.00,0.0079
3193.00,0.0079
3192.00,0.0079
3191.00,0.0079
3190.00,0.0079
3189.00,0.0079
3188.00,0.0079
3187.00,0.0079
3186.00,0.0080
3185.00,0.0080
3184.00,0.0080
3183.00,0.0080
3182.00,0.0080
3181.00,0.0080
3180.00,0.0080
3179.00,0.0080
3178.00,0.0080
3177.00,0.0080
3176.00,0.0080
3175.00,0.0080
3174.00,0.0080
3173.00,0.0080
3172.00,0.0080
3171.00,0.0080
3170.00,0.0080
3169.00,0.0080
3168.00,0.0079
3167.00,0.0079
3166.00,0.0080
3165.00,0.0080
3164.00,0.0080
3163.00,0.0080
3162.00,0.0080
3161.00,0.0080
3160.00,0.0080
3159.00,0.0080
3158.00,0.0080
3157.00,0.0080
3156.00,0.0080
3155.00,0.0079
3154.00,0.0079
3153.00,0.0079
3152.00,0.0079
3151.00,0.0079
3150.00,0.0079
3149.00,0.0079
3148.00,0.0079
3147.00,0.0079
3146.00,0.0079
3145.00,0.0080
3144.00,0.0080
3143.00,0.0080
3142.00,0.0080
3141.00,0.0080
3140.00,0.0080
3139.00,0.0080
3138.00,0.0080
3137.00,0.0080
3136.00,0.0079
3135.00,0.0079
3134.00,0.0079
3133.00,0.0079
3132.00,0.0079
3131.00,0.0079
3130.00,0.0080
3129.00,0.0080
3128.00,0.0080
3127.00,0.0080
3126.00,0.0080
3125.00,0.0080
3124.00,0.0080
3123.00,0.0080
3122.00,0.0079
3121.00,0.0079
3120.00,0.0078
3119.00,0.0078
3118.00,0.0078
3117.00,0.0079
3116.00,0.0079
3115.00,0.0080
3114.00,0.0080
3113.00,0.0081
3112.00,0.0080
3111.00,0.0080
3110.00,0.0079
3109.00,0.0079
3108.00,0.0079
3107.00,0.0079
3106.00,0.0079
3105.00,0.0079
3104.00,0.0080
3103.00,0.0080
3102.00,0.0079
3101.00,0.0079
3100.00,0.0079
3099.00,0.0079
3098.00,0.0080
3097.00,0.0080
3096.00,0.0080
3095.00,0.0080
3094.00,0.0080
3093.00,0.0080
3092.00,0.0080
3091.00,0.0080
3090.00,0.0080
3089.00,0.0080
3088.00,0.0081
3087.00,0.0081
3086.00,0.0080
3085.00,0.0080
3084.00,0.0080
3083.00,0.0079
3082.00,0.0080
3081.00,0.0080
3080.00,0.0080
3079.00,0.0080
3078.00,0.0080
3077.00,0.0080
3076.00,0.0080
3075.00,0.0080
3074.00,0.0079
3073.00,0.0079
3072.00,0.0080
3071.00,0.0080
3070.00,0.0080
3069.00,0.0080
3068.00,0.0079
3067.00,0.0079
3066.00,0.0079
3065.00,0.0080
3064.00,0.0080
3063.00,0.0080
3062.00,0.0081
3061.00,0.0080
3060.00,0.0080
3059.00,0.0080
3058.00,0.0080
3057.00,0.0080
3056.00,0.0080
3055.00,0.0080
3054.00,0.0081
3053.00,0.0081
3052.00,0.0081
3051.00,0.0080
3050.00,0.0080
3049.00,0.0079
3048.00,0.0079
3047.00,0.0079
3046.00,0.0079
3045.00,0.0079
3044.00,0.0080
3043.00,0.0080
3042.00,0.0080
3041.00,0.0080
3040.00,0.0080
3039.00,0.0080
3038.00,0.0080
3037.00,0.0080
3036.00,0.0080
3035.00,0.0079
3034.00,0.0079
3033.00,0.0080
3032.00,0.0080
3031.00,0.0080
3030.00,0.0080
3029.00,0.0080
3028.00,0.0079
3027.00,0.0079
3026.00,0.0079
3025.00,0.0079
3024.00,0.0078
3023.00,0.0078
3022.00,0.0078
3021.00,0.0079
3020.00,0.0079
3019.00,0.0079
3018.00,0.0078
3017.00,0.0078
3016.00,0.0078
3015.00,0.0078
3014.00,0.0078
3013.00,0.0078
3012.00,0.0079
3011.00,0.0079
3010.00,0.0079
3009.00,0.0079
3008.00,0.0078
3007.00,0.0078
3006.00,0.0078
3005.00,0.0078
3004.00,0.0078
3003.00,0.0078
3002.00,0.0078
3001.00,0.0078
3000.00,0.0078
2999.00,0.0078
2998.00,0.0077
2997.00,0.0077
2996.00,0.0077
2995.00,0.0077
2994.00,0.0077
2993.00,0.0077
2992.00,0.0077
2991.00,0.0077
2990.00,0.0076
2989.00,0.0076
2988.00,0.0076
2987.00,0.0076
2986.00,0.0076
2985.00,0.0076
2984.00,0.0076
2983.00,0.0076
2982.00,0.0075
2981.00,0.0075
2980.00,0.0075
2979.00,0.0075
2978.00,0.0075
2977.00,0.0075
2976.00,0.0075
2975.00,0.0075
2974.00,0.0074
2973.00,0.0074
2972.00,0.0073
2971.00,0.0073
2970.00,0.0072
2969.00,0.0072
2968.00,0.0071
2967.00,0.0071
2966.00,0.0071
2965.00,0.0070
2964.00,0.0070
2963.00,0.0069
2962.00,0.0069
2961.00,0.0069
2960.00,0.0069
2959.00,0.0069
2958.00,0.0069
2957.00,0.0068
2956.00,0.0068
2955.00,0.0068
2954.00,0.0068
2953.00,0.0069
2952.00,0.0069
2951.00,0.0069
2950.00,0.0069
2949.00,0.0069
2948.00,0.0069
2947.00,0.0069
2946.00,0.0069
2945.00,0.0069
2944.00,0.0068
2943.00,0.0068
2942.00,0.0067
2941.00,0.0067
2940.00,0.0066
2939.00,0.0065
2938.00,0.0065
2937.00,0.0064
2936.00,0.0063
2935.00,0.0062
2934.00,0.0061
2933.00,0.0060
2932.00,0.0059
2931.00,0.0059
2930.00,0.0058
2929.00,0.0057
2928.00,0.0056
2927.00,0.0055
2926.00,0.0055
2925.00,0.0054
2924.00,0.0054
2923.00,0.0054
2922.00,0.0055
2921.00,0.0056
2920.00,0.0057
2919.00,0.0057
2918.00,0.0058
2917.00,0.0058
2916.00,0.0059
2915.00,0.0060
2914.00,0.0061
2913.00,0.0062
2912.00,0.0063
2911.00,0.0064
2910.00,0.0064
2909.00,0.0065
2908.00,0.0065
2907.00,0.0066
2906.00,0.0066
2905.00,0.0066
2904.00,0.0066
2903.00,0.0066
2902.00,0.0067
2901.00,0.0067
2900.00,0.0067
2899.00,0.0067
2898.00,0.0067
2897.00,0.0067
2896.00,0.0067
2895.00,0.0067
2894.00,0.0068
2893.00,0.0068
2892.00,0.0068
2891.00,0.0069
2890.00,0.0069
2889.00,0.0069
2888.00,0.0069
2887.00,0.0070
2886.00,0.0070
2885.00,0.0070
2884.00,0.0070
2883.00,0.0071
2882.00,0.0071
2881.00,0.0071
2880.00,0.0071
2879.00,0.0071
2878.00,0.0070
2877.00,0.0070
2876.00,0.0070
2875.00,0.0069
2874.00,0.0068
2873.00,0.0068
2872.00,0.0067
2871.00,0.0067
2870.00,0.0067
2869.00,0.0067
2868.00,0.0067
2867.00,0.0067
2866.00,0.0067
2865.00,0.0066
2864.00,0.0066
2863.00,0.0065
2862.00,0.0065
2861.00,0.0065
2860.00,0.0065
2859.00,0.0064
2858.00,0.0063
2857.00,0.0062
2856.00,0.0062
2855.00,0.0061
2854.00,0.0061
2853.00,0.0061
2852.00,0.0061
2851.00,0.0061
2850.00,0.0062
2849.00,0.0063
2848.00,0.0063
2847.00,0.0064
2846.00,0.0065
2845.00,0.0066
2844.00,0.0066
2843.00,0.0067
2842.00,0.0068
2841.00,0.0068
2840.00,0.0069
2839.00,0.0070
2838.00,0.0071
2837.00,0.0071
2836.00,0.0071
2835.00,0.0071
2834.00,0.0071
2833.00,0.0071
2832.00,0.0071
2831.00,0.0072
2830.00,0.0072
2829.00,0.0072
2828.00,0.0071
2827.00,0.0071
2826.00,0.0072
2825.00,0.0071
2824.00,0.0071
2823.00,0.0071
2822.00,0.0071
2821.00,0.0071
2820.00,0.0071
2819.00,0.0071
2818.00,0.0071
2817.00,0.0071
2816.00,0.0070
2815.00,0.0070
2814.00,0.0070
2813.00,0.0070
2812.00,0.0070
2811.00,0.0070
2810.00,0.0070
2809.00,0.0070
2808.00,0.0070
2807.00,0.0070
2806.00,0.0070
2805.00,0.0070
2804.00,0.0071
2803.00,0.0071
2802.00,0.0071
2801.00,0.0071
2800.00,0.0070
2799.00,0.0070
2798.00,0.0070
2797.00,0.0070
2796.00,0.0070
2795.00,0.0070
2794.00,0.0070
2793.00,0.0069
2792.00,0.0069
2791.00,0.0069
2790.00,0.0070
2789.00,0.0070
2788.00,0.0070
2787.00,0.0070
2786.00,0.0070
2785.00,0.0069
2784.00,0.0069
2783.00,0.0069
2782.00,0.0069
2781.00,0.0069
2780.00,0.0069
2779.00,0.0069
2778.00,0.0069
2777.00,0.0069
2776.00,0.0069
2775.00,0.0069
2774.00,0.0069
2773.00,0.0069
2772.00,0.0069
2771.00,0.0069
2770.00,0.0069
2769.00,0.0069
2768.00,0.0069
2767.00,0.0068
2766.00,0.0068
2765.00,0.0068
2764.00,0.0069
2763.00,0.0069
2762.00,0.0069
2761.00,0.0068
2760.00,0.0068
2759.00,0.0068
2758.00,0.0068
2757.00,0.0068
2756.00,0.0068
2755.00,0.0068
2754.00,0.0068
2753.00,0.0068
2752.00,0.0068
2751.00,0.0068
2750.00,0.0068
2749.00,0.0068
2748.00,0.0068
2747.00,0.0068
2746.00,0.0068
2745.00,0.0067
2744.00,0.0067
2743.00,0.0067
2742.00,0.0067
2741.00,0.0067
2740.00,0.0068
2739.00,0.0068
2738.00,0.0067
2737.00,0.0067
2736.00,0.0067
2735.00,0.0066
2734.00,0.0066
2733.00,0.0067
2732.00,0.0067
2731.00,0.0066
2730.00,0.0066
2729.00,0.0066
2728.00,0.0067
2727.00,0.0067
2726.00,0.0067
2725.00,0.0067
2724.00,0.0067
2723.00,0.0067
2722.00,0.0067
2721.00,0.0067
2720.00,0.0066
2719.00,0.0066
2718.00,0.0066
2717.00,0.0066
2716.00,0.0066
2715.00,0.0066
2714.00,0.0066
2713.00,0.0066
2712.00,0.0066
2711.00,0.0066
2710.00,0.0066
2709.00,0.0067
2708.00,0.0067
2707.00,0.0067
2706.00,0.0066
2705.00,0.0066
2704.00,0.0066
2703.00,0.0066
2702.00,0.0066
2701.00,0.0065
2700.00,0.0065
2699.00,0.0065
2698.00,0.0065
2697.00,0.0065
2696.00,0.0065
2695.00,0.0065
2694.00,0.0065
2693.00,0.0065
2692.00,0.0065
2691.00,0.0065
2690.00,0.0065
2689.00,0.0065
2688.00,0.0065
2687.00,0.0065
2686.00,0.0065
2685.00,0.0065
2684.00,0.0065
2683.00,0.0064
2682.00,0.0064
2681.00,0.0065
2680.00,0.0065
2679.00,0.0065
2678.00,0.0065
2677.00,0.0065
2676.00,0.0064
2675.00,0.0064
2674.00,0.0064
2673.00,0.0065
2672.00,0.0064
2671.00,0.0064
2670.00,0.0064
2669.00,0.0064
2668.00,0.0064
2667.00,0.0064
2666.00,0.0064
2665.00,0.0064
2664.00,0.0064
2663.00,0.0064
2662.00,0.0064
2661.00,0.0064
2660.00,0.0065
2659.00,0.0065
2658.00,0.0065
2657.00,0.0065
2656.00,0.0064
2655.00,0.0065
2654.00,0.0065
2653.00,0.0065
2652.00,0.0065
2651.00,0.0065
2650.00,0.0065
2649.00,0.0065
2648.00,0.0065
2647.00,0.0065
2646.00,0.0065
2645.00,0.0065
2644.00,0.0065
2643.00,0.0066
2642.00,0.0066
2641.00,0.0066
2640.00,0.0066
2639.00,0.0066
2638.00,0.0065
2637.00,0.0065
2636.00,0.0065
2635.00,0.0065
2634.00,0.0065
2633.00,0.0065
2632.00,0.0064
2631.00,0.0064
2630.00,0.0064
2629.00,0.0064
2628.00,0.0065
2627.00,0.0065
2626.00,0.0065
2625.00,0.0065
2624.00,0.0065
2623.00,0.0065
2622.00,0.0065
2621.00,0.0065
2620.00,0.0064
2619.00,0.0064
2618.00,0.0065
2617.00,0.0065
2616.00,0.0066
2615.00,0.0066
2614.00,0.0066
2613.00,0.0066
2612.00,0.0066
2611.00,0.0066
2610.00,0.0065
2609.00,0.0065
2608.00,0.0065
2607.00,0.0065
2606.00,0.0065
2605.00,0.0065
2604.00,0.0065
2603.00,0.0066
2602.00,0.0066
2601.00,0.0066
2600.00,0.0066
2599.00,0.0066
2598.00,0.0066
2597.00,0.0066
2596.00,0.0065
2595.00,0.0065
2594.00,0.0065
2593.00,0.0066
2592.00,0.0067
2591.00,0.0067
2590.00,0.0066
2589.00,0.0066
2588.00,0.0065
2587.00,0.0065
2586.00,0.0064
2585.00,0.0064
2584.00,0.0064
2583.00,0.0065
2582.00,0.0065
2581.00,0.0065
2580.00,0.0065
2579.00,0.0064
2578.00,0.0064
2577.00,0.0065
2576.00,0.0065
2575.00,0.0065
2574.00,0.0066
2573.00,0.0065
2572.00,0.0065
2571.00,0.0065
2570.00,0.0065
2569.00,0.0065
2568.00,0.0065
2567.00,0.0066
2566.00,0.0066
2565.00,0.0066
2564.00,0.0066
2563.00,0.0066
2562.00,0.0066
2561.00,0.0066
2560.00,0.0066
2559.00,0.0066
2558.00,0.0065
2557.00,0.0066
2556.00,0.0066
2555.00,0.0066
2554.00,0.0066
2553.00,0.0066
2552.00,0.0066
2551.00,0.0066
2550.00,0.0066
2549.00,0.0066
2548.00,0.0065
2547.00,0.0065
2546.00,0.0064
2545.00,0.0064
2544.00,0.0065
2543.00,0.0065
2542.00,0.0066
2541.00,0.0067
2540.00,0.0067
2539.00,0.0067
2538.00,0.0067
2537.00,0.0067
2536.00,0.0067
2535.00,0.0067
2534.00,0.0067
2533.00,0.0067
2532.00,0.0067
2531.00,0.0067
2530.00,0.0067
2529.00,0.0067
2528.00,0.0066
2527.00,0.0066
2526.00,0.0066
2525.00,0.0067
2524.00,0.0067
2523.00,0.0067
2522.00,0.0067
2521.00,0.0067
2520.00,0.0067
2519.00,0.0067
2518.00,0.0066
2517.00,0.0066
2516.00,0.0065
2515.00,0.0066
2514.00,0.0066
2513.00,0.0067
2512.00,0.0067
2511.00,0.0067
2510.00,0.0067
2509.00,0.0066
2508.00,0.0066
2507.00,0.0065
2506.00,0.0065
2505.00,0.0066
2504.00,0.0066
2503.00,0.0066
2502.00,0.0067
2501.00,0.0067
2500.00,0.0067
2499.00,0.0067
2498.00,0.0066
2497.00,0.0066
2496.00,0.0065
2495.00,0.0065
2494.00,0.0065
2493.00,0.0066
2492.00,0.0066
2491.00,0.0067
2490.00,0.0067
2489.00,0.0067
2488.00,0.0067
2487.00,0.0066
2486.00,0.0066
2485.00,0.0065
2484.00,0.0065
2483.00,0.0066
2482.00,0.0066
2481.00,0.0067
2480.00,0.0067
2479.00,0.0066
2478.00,0.0066
2477.00,0.0066
2476.00,0.0066
2475.00,0.0066
2474.00,0.0066
2473.00,0.0066
2472.00,0.0066
2471.00,0.0066
2470.00,0.0066
2469.00,0.0065
2468.00,0.0065
2467.00,0.0065
2466.00,0.0065
2465.00,0.0065
2464.00,0.0066
2463.00,0.0066
2462.00,0.0065
2461.00,0.0065
2460.00,0.0065
2459.00,0.0066
2458.00,0.0066
2457.00,0.0067
2456.00,0.0067
2455.00,0.0066
2454.00,0.0066
2453.00,0.0066
2452.00,0.0066
2451.00,0.0066
2450.00,0.0066
2449.00,0.0066
2448.00,0.0066
2447.00,0.0066
2446.00,0.0066
2445.00,0.0066
2444.00,0.0066
2443.00,0.0066
2442.00,0.0066
2441.00,0.0066
2440.00,0.0065
2439.00,0.0065
2438.00,0.0065
2437.00,0.0065
2436.00,0.0066
2435.00,0.0066
2434.00,0.0066
2433.00,0.0066
2432.00,0.0066
2431.00,0.0066
2430.00,0.0066
2429.00,0.0066
2428.00,0.0066
2427.00,0.0066
2426.00,0.0066
2425.00,0.0066
2424.00,0.0066
2423.00,0.0066
2422.00,0.0066
2421.00,0.0065
2420.00,0.0065
2419.00,0.0065
2418.00,0.0065
2417.00,0.0065
2416.00,0.0065
2415.00,0.0065
2414.00,0.0065
2413.00,0.0065
2412.00,0.0065
2411.00,0.0065
2410.00,0.0065
2409.00,0.0065
2408.00,0.0065
2407.00,0.0065
2406.00,0.0065
2405.00,0.0065
2404.00,0.0066
2403.00,0.0066
2402.00,0.0065
2401.00,0.0065
2400.00,0.0065
2399.00,0.0064
2398.00,0.0065
2397.00,0.0065
2396.00,0.0065
2395.00,0.0065
2394.00,0.0065
2393.00,0.0065
2392.00,0.0066
2391.00,0.0066
2390.00,0.0065
2389.00,0.0065
2388.00,0.0064
2387.00,0.0064
2386.00,0.0063
2385.00,0.0063
2384.00,0.0062
2383.00,0.0061
2382.00,0.0060
2381.00,0.0059
2380.00,0.0057
2379.00,0.0056
2378.00,0.0054
2377.00,0.0054
2376.00,0.0054
2375.00,0.0054
2374.00,0.0054
2373.00,0.0055
2372.00,0.0056
2371.00,0.0056
2370.00,0.0055
2369.00,0.0054
2368.00,0.0054
2367.00,0.0055
2366.00,0.0054
2365.00,0.0052
2364.00,0.0050
2363.00,0.0048
2362.00,0.0048
2361.00,0.0050
2360.00,0.0051
2359.00,0.0052
2358.00,0.0052
2357.00,0.0053
2356.00,0.0055
2355.00,0.0058
2354.00,0.0059
2353.00,0.0059
2352.00,0.0058
2351.00,0.0055
2350.00,0.0052
2349.00,0.0053
2348.00,0.0053
2347.00,0.0052
2346.00,0.0048
2345.00,0.0043
2344.00,0.0040
2343.00,0.0040
2342.00,0.0043
2341.00,0.0046
2340.00,0.0049
2339.00,0.0051
2338.00,0.0053
2337.00,0.0055
2336.00,0.0056
2335.00,0.0057
2334.00,0.0057
2333.00,0.0058
2332.00,0.0059
2331.00,0.0060
2330.00,0.0060
2329.00,0.0062
2328.00,0.0063
2327.00,0.0065
2326.00,0.0067
2325.00,0.0067
2324.00,0.0068
2323.00,0.0067
2322.00,0.0066
2321.00,0.0065
2320.00,0.0064
2319.00,0.0064
2318.00,0.0065
2317.00,0.0066
2316.00,0.0067
2315.00,0.0067
2314.00,0.0066
2313.00,0.0065
2312.00,0.0063
2311.00,0.0062
2310.00,0.0061
2309.00,0.0060
2308.00,0.0059
2307.00,0.0060
2306.00,0.0060
2305.00,0.0061
2304.00,0.0061
2303.00,0.0061
2302.00,0.0061
2301.00,0.0061
2300.00,0.0061
2299.00,0.0061
2298.00,0.0061
2297.00,0.0060
2296.00,0.0060
2295.00,0.0060
2294.00,0.0059
2293.00,0.0060
2292.00,0.0060
2291.00,0.0061
2290.00,0.0061
2289.00,0.0061
2288.00,0.0061
2287.00,0.0061
2286.00,0.0061
2285.00,0.0061
2284.00,0.0062
2283.00,0.0062
2282.00,0.0062
2281.00,0.0063
2280.00,0.0063
2279.00,0.0063
2278.00,0.0063
2277.00,0.0063
2276.00,0.0063
2275.00,0.0063
2274.00,0.0064
2273.00,0.0065
2272.00,0.0065
2271.00,0.0064
2270.00,0.0062
2269.00,0.0061
2268.00,0.0061
2267.00,0.0061
2266.00,0.0061
2265.00,0.0060
2264.00,0.0061
2263.00,0.0061
2262.00,0.0062
2261.00,0.0062
2260.00,0.0063
2259.00,0.0063
2258.00,0.0064
2257.00,0.0064
2256.00,0.0064
2255.00,0.0064
2254.00,0.0064
2253.00,0.0063
2252.00,0.0063
2251.00,0.0062
2250.00,0.0062
2249.00,0.0062
2248.00,0.0062
2247.00,0.0063
2246.00,0.0063
2245.00,0.0062
2244.00,0.0063
2243.00,0.0063
2242.00,0.0064
2241.00,0.0064
2240.00,0.0064
2239.00,0.0064
2238.00,0.0063
2237.00,0.0063
2236.00,0.0063
2235.00,0.0063
2234.00,0.0063
2233.00,0.0062
2232.00,0.0062
2231.00,0.0063
2230.00,0.0063
2229.00,0.0064
2228.00,0.0065
2227.00,0.0066
2226.00,0.0066
2225.00,0.0065
2224.00,0.0064
2223.00,0.0063
2222.00,0.0063
2221.00,0.0064
2220.00,0.0064
2219.00,0.0063
2218.00,0.0063
2217.00,0.0063
2216.00,0.0064
2215.00,0.0065
2214.00,0.0066
2213.00,0.0065
2212.00,0.0065
2211.00,0.0064
2210.00,0.0063
2209.00,0.0063
2208.00,0.0063
2207.00,0.0063
2206.00,0.0064
2205.00,0.0065
2204.00,0.0066
2203.00,0.0065
2202.00,0.0065
2201.00,0.0064
2200.00,0.0064
2199.00,0.0064
2198.00,0.0065
2197.00,0.0066
2196.00,0.0066
2195.00,0.0066
2194.00,0.0066
2193.00,0.0064
2192.00,0.0063
2191.00,0.0063
2190.00,0.0064
2189.00,0.0064
2188.00,0.0063
2187.00,0.0062
2186.00,0.0062
2185.00,0.0061
2184.00,0.0061
2183.00,0.0062
2182.00,0.0063
2181.00,0.0064
2180.00,0.0066
2179.00,0.0067
2178.00,0.0067
2177.00,0.0066
2176.00,0.0065
2175.00,0.0064
2174.00,0.0064
2173.00,0.0063
2172.00,0.0063
2171.00,0.0062
2170.00,0.0061
2169.00,0.0061
2168.00,0.0060
2167.00,0.0060
2166.00,0.0060
2165.00,0.0061
2164.00,0.0063
2163.00,0.0065
2162.00,0.0065
2161.00,0.0064
2160.00,0.0063
2159.00,0.0063
2158.00,0.0063
2157.00,0.0063
2156.00,0.0062
2155.00,0.0063
2154.00,0.0064
2153.00,0.0064
2152.00,0.0063
2151.00,0.0062
2150.00,0.0061
2149.00,0.0060
2148.00,0.0060
2147.00,0.0059
2146.00,0.0059
2145.00,0.0059
2144.00,0.0059
2143.00,0.0060
2142.00,0.0061
2141.00,0.0060
2140.00,0.0059
2139.00,0.0058
2138.00,0.0057
2137.00,0.0056
2136.00,0.0056
2135.00,0.0056
2134.00,0.0057
2133.00,0.0057
2132.00,0.0056
2131.00,0.0056
2130.00,0.0055
2129.00,0.0055
2128.00,0.0054
2127.00,0.0053
2126.00,0.0053
2125.00,0.0053
2124.00,0.0055
2123.00,0.0056
2122.00,0.0057
2121.00,0.0057
2120.00,0.0058
2119.00,0.0059
2118.00,0.0059
2117.00,0.0059
2116.00,0.0059
2115.00,0.0058
2114.00,0.0057
2113.00,0.0056
2112.00,0.0055
2111.00,0.0055
2110.00,0.0055
2109.00,0.0055
2108.00,0.0055
2107.00,0.0054
2106.00,0.0054
2105.00,0.0054
2104.00,0.0055
2103.00,0.0055
2102.00,0.0055
2101.00,0.0055
2100.00,0.0054
2099.00,0.0054
2098.00,0.0055
2097.00,0.0056
2096.00,0.0056
2095.00,0.0055
2094.00,0.0055
2093.00,0.0054
2092.00,0.0055
2091.00,0.0056
2090.00,0.0056
2089.00,0.0056
2088.00,0.0056
2087.00,0.0055
2086.00,0.0055
2085.00,0.0054
2084.00,0.0053
2083.00,0.0053
2082.00,0.0053
2081.00,0.0053
2080.00,0.0053
2079.00,0.0053
2078.00,0.0053
2077.00,0.0054
2076.00,0.0055
2075.00,0.0056
2074.00,0.0055
2073.00,0.0054
2072.00,0.0054
2071.00,0.0054
2070.00,0.0055
2069.00,0.0056
2068.00,0.0057
2067.00,0.0057
2066.00,0.0057
2065.00,0.0057
2064.00,0.0056
2063.00,0.0055
2062.00,0.0055
2061.00,0.0056
2060.00,0.0056
2059.00,0.0056
2058.00,0.0055
2057.00,0.0055
2056.00,0.0055
2055.00,0.0055
2054.00,0.0055
2053.00,0.0055
2052.00,0.0055
2051.00,0.0056
2050.00,0.0057
2049.00,0.0057
2048.00,0.0057
2047.00,0.0058
2046.00,0.0059
2045.00,0.0060
2044.00,0.0059
2043.00,0.0058
2042.00,0.0058
2041.00,0.0058
2040.00,0.0058
2039.00,0.0058
2038.00,0.0058
2037.00,0.0058
2036.00,0.0058
2035.00,0.0056
2034.00,0.0055
2033.00,0.0053
2032.00,0.0052
2031.00,0.0052
2030.00,0.0053
2029.00,0.0054
2028.00,0.0055
2027.00,0.0055
2026.00,0.0055
2025.00,0.0055
2024.00,0.0056
2023.00,0.0056
2022.00,0.0057
2021.00,0.0057
2020.00,0.0057
2019.00,0.0056
2018.00,0.0055
2017.00,0.0054
2016.00,0.0054
2015.00,0.0055
2014.00,0.0056
2013.00,0.0055
2012.00,0.0053
2011.00,0.0051
2010.00,0.0050
2009.00,0.0050
2008.00,0.0051
2007.00,0.0052
2006.00,0.0053
2005.00,0.0054
2004.00,0.0055
2003.00,0.0056
2002.00,0.0056
2001.00,0.0057
2000.00,0.0056
1999.00,0.0055
1998.00,0.0055
1997.00,0.0056
1996.00,0.0057
1995.00,0.0058
1994.00,0.0059
1993.00,0.0059
1992.00,0.0059
1991.00,0.0058
1990.00,0.0056
1989.00,0.0055
1988.00,0.0054
1987.00,0.0053
1986.00,0.0052
1985.00,0.0053
1984.00,0.0054
1983.00,0.0055
1982.00,0.0056
1981.00,0.0057
1980.00,0.0057
1979.00,0.0056
1978.00,0.0055
1977.00,0.0055
1976.00,0.0056
1975.00,0.0056
1974.00,0.0057
1973.00,0.0056
1972.00,0.0056
1971.00,0.0056
1970.00,0.0056
1969.00,0.0057
1968.00,0.0057
1967.00,0.0056
1966.00,0.0054
1965.00,0.0052
1964.00,0.0051
1963.00,0.0052
1962.00,0.0053
1961.00,0.0054
1960.00,0.0053
1959.00,0.0052
1958.00,0.0052
1957.00,0.0051
1956.00,0.0050
1955.00,0.0049
1954.00,0.0048
1953.00,0.0048
1952.00,0.0049
1951.00,0.0049
1950.00,0.0049
1949.00,0.0050
1948.00,0.0050
1947.00,0.0051
1946.00,0.0051
1945.00,0.0050
1944.00,0.0050
1943.00,0.0050
1942.00,0.0050
1941.00,0.0050
1940.00,0.0049
1939.00,0.0049
1938.00,0.0049
1937.00,0.0049
1936.00,0.0049
1935.00,0.0049
1934.00,0.0048
1933.00,0.0049
1932.00,0.0049
1931.00,0.0049
1930.00,0.0049
1929.00,0.0048
1928.00,0.0047
1927.00,0.0047
1926.00,0.0048
1925.00,0.0049
1924.00,0.0050
1923.00,0.0049
1922.00,0.0048
1921.00,0.0048
1920.00,0.0048
1919.00,0.0048
1918.00,0.0047
1917.00,0.0047
1916.00,0.0047
1915.00,0.0046
1914.00,0.0046
1913.00,0.0045
1912.00,0.0045
1911.00,0.0044
1910.00,0.0044
1909.00,0.0044
1908.00,0.0044
1907.00,0.0043
1906.00,0.0044
1905.00,0.0045
1904.00,0.0045
1903.00,0.0045
1902.00,0.0045
1901.00,0.0044
1900.00,0.0043
1899.00,0.0042
1898.00,0.0042
1897.00,0.0042
1896.00,0.0042
1895.00,0.0042
1894.00,0.0042
1893.00,0.0043
1892.00,0.0044
1891.00,0.0044
1890.00,0.0043
1889.00,0.0042
1888.00,0.0041
1887.00,0.0041
1886.00,0.0042
1885.00,0.0042
1884.00,0.0042
1883.00,0.0041
1882.00,0.0041
1881.00,0.0041
1880.00,0.0042
1879.00,0.0041
1878.00,0.0041
1877.00,0.0040
1876.00,0.0040
1875.00,0.0040
1874.00,0.0040
1873.00,0.0041
1872.00,0.0041
1871.00,0.0041
1870.00,0.0039
1869.00,0.0038
1868.00,0.0037
1867.00,0.0037
1866.00,0.0038
1865.00,0.0039
1864.00,0.0039
1863.00,0.0039
1862.00,0.0039
1861.00,0.0039
1860.00,0.0038
1859.00,0.0038
1858.00,0.0038
1857.00,0.0038
1856.00,0.0038
1855.00,0.0038
1854.00,0.0038
1853.00,0.0037
1852.00,0.0036
1851.00,0.0036
1850.00,0.0036
1849.00,0.0036
1848.00,0.0036
1847.00,0.0037
1846.00,0.0038
1845.00,0.0037
1844.00,0.0036
1843.00,0.0034
1842.00,0.0034
1841.00,0.0035
1840.00,0.0036
1839.00,0.0035
1838.00,0.0034
1837.00,0.0034
1836.00,0.0034
1835.00,0.0034
1834.00,0.0035
1833.00,0.0035
1832.00,0.0035
1831.00,0.0034
1830.00,0.0033
1829.00,0.0032
1828.00,0.0032
1827.00,0.0033
1826.00,0.0033
1825.00,0.0033
1824.00,0.0032
1823.00,0.0032
1822.00,0.0032
1821.00,0.0032
1820.00,0.0032
1819.00,0.0032
1818.00,0.0032
1817.00,0.0032
1816.00,0.0032
1815.00,0.0031
1814.00,0.0031
1813.00,0.0030
1812.00,0.0029
1811.00,0.0028
1810.00,0.0027
1809.00,0.0028
1808.00,0.0028
1807.00,0.0029
1806.00,0.0029
1805.00,0.0030
1804.00,0.0031
1803.00,0.0031
1802.00,0.0031
1801.00,0.0030
1800.00,0.0029
1799.00,0.0028
1798.00,0.0028
1797.00,0.0028
1796.00,0.0029
1795.00,0.0030
1794.00,0.0030
1793.00,0.0030
1792.00,0.0030
1791.00,0.0030
1790.00,0.0030
1789.00,0.0031
1788.00,0.0032
1787.00,0.0032
1786.00,0.0031
1785.00,0.0032
1784.00,0.0032
1783.00,0.0032
1782.00,0.0033
1781.00,0.0033
1780.00,0.0032
1779.00,0.0033
1778.00,0.0034
1777.00,0.0035
1776.00,0.0036
1775.00,0.0037
1774.00,0.0038
1773.00,0.0037
1772.00,0.0036
1771.00,0.0035
1770.00,0.0037
1769.00,0.0038
1768.00,0.0039
1767.00,0.0039
1766.00,0.0039
1765.00,0.0040
1764.00,0.0041
1763.00,0.0042
1762.00,0.0042
1761.00,0.0041
1760.00,0.0041
1759.00,0.0042
1758.00,0.0042
1757.00,0.0041
1756.00,0.0041
1755.00,0.0041
1754.00,0.0042
1753.00,0.0042
1752.00,0.0041
1751.00,0.0041
1750.00,0.0040
1749.00,0.0041
1748.00,0.0042
1747.00,0.0043
1746.00,0.0044
1745.00,0.0044
1744.00,0.0045
1743.00,0.0046
1742.00,0.0047
1741.00,0.0048
1740.00,0.0048
1739.00,0.0049
1738.00,0.0051
1737.00,0.0054
1736.00,0.0057
1735.00,0.0058
1734.00,0.0058
1733.00,0.0057
1732.00,0.0057
1731.00,0.0059
1730.00,0.0061
1729.00,0.0062
1728.00,0.0064
1727.00,0.0065
1726.00,0.0066
1725.00,0.0067
1724.00,0.0068
1723.00,0.0069
1722.00,0.0071
1721.00,0.0072
1720.00,0.0073
1719.00,0.0072
1718.00,0.0072
1717.00,0.0073
1716.00,0.0075
1715.00,0.0076
1714.00,0.0077
1713.00,0.0078
1712.00,0.0078
1711.00,0.0078
1710.00,0.0078
1709.00,0.0078
1708.00,0.0078
1707.00,0.0078
1706.00,0.0079
1705.00,0.0079
1704.00,0.0081
1703.00,0.0083
1702.00,0.0084
1701.00,0.0085
1700.00,0.0084
1699.00,0.0083
1698.00,0.0084
1697.00,0.0085
1696.00,0.0085
1695.00,0.0082
1694.00,0.0081
1693.00,0.0082
1692.00,0.0083
1691.00,0.0082
1690.00,0.0081
1689.00,0.0081
1688.00,0.0082
1687.00,0.0082
1686.00,0.0081
1685.00,0.0080
1684.00,0.0080
1683.00,0.0080
1682.00,0.0082
1681.00,0.0084
1680.00,0.0085
1679.00,0.0085
1678.00,0.0086
1677.00,0.0086
1676.00,0.0086
1675.00,0.0086
1674.00,0.0086
1673.00,0.0087
1672.00,0.0087
1671.00,0.0087
1670.00,0.0087
1669.00,0.0088
1668.00,0.0088
1667.00,0.0089
1666.00,0.0091
1665.00,0.0091
1664.00,0.0091
1663.00,0.0091
1662.00,0.0092
1661.00,0.0092
1660.00,0.0093
1659.00,0.0094
1658.00,0.0094
1657.00,0.0094
1656.00,0.0094
1655.00,0.0094
1654.00,0.0096
1653.00,0.0098
1652.00,0.0096
1651.00,0.0096
1650.00,0.0098
1649.00,0.0098
1648.00,0.0098
1647.00,0.0099
1646.00,0.0101
1645.00,0.0102
1644.00,0.0104
1643.00,0.0105
1642.00,0.0106
1641.00,0.0106
1640.00,0.0105
1639.00,0.0105
1638.00,0.0105
1637.00,0.0106
1636.00,0.0108
1635.00,0.0110
1634.00,0.0111
1633.00,0.0113
1632.00,0.0114
1631.00,0.0114
1630.00,0.0115
1629.00,0.0115
1628.00,0.0116
1627.00,0.0117
1626.00,0.0118
1625.00,0.0119
1624.00,0.0121
1623.00,0.0122
1622.00,0.0123
1621.00,0.0123
1620.00,0.0124
1619.00,0.0124
1618.00,0.0125
1617.00,0.0126
1616.00,0.0126
1615.00,0.0128
1614.00,0.0129
1613.00,0.0130
1612.00,0.0130
1611.00,0.0130
1610.00,0.0131
1609.00,0.0132
1608.00,0.0133
1607.00,0.0134
1606.00,0.0135
1605.00,0.0135
1604.00,0.0136
1603.00,0.0137
1602.00,0.0138
1601.00,0.0139
1600.00,0.0140
1599.00,0.0140
1598.00,0.0141
1597.00,0.0141
1596.00,0.0141
1595.00,0.0142
1594.00,0.0142
1593.00,0.0143
1592.00,0.0143
1591.00,0.0144
1590.00,0.0145
1589.00,0.0146
1588.00,0.0146
1587.00,0.0146
1586.00,0.0146
1585.00,0.0146
1584.00,0.0146
1583.00,0.0146
1582.00,0.0146
1581.00,0.0147
1580.00,0.0147
1579.00,0.0147
1578.00,0.0147
1577.00,0.0148
1576.00,0.0148
1575.00,0.0148
1574.00,0.0148
1573.00,0.0149
1572.00,0.0148
1571.00,0.0147
1570.00,0.0147
1569.00,0.0147
1568.00,0.0148
1567.00,0.0148
1566.00,0.0148
1565.00,0.0148
1564.00,0.0147
1563.00,0.0147
1562.00,0.0147
1561.00,0.0145
1560.00,0.0144
1559.00,0.0149
1558.00,0.0150
1557.00,0.0149
1556.00,0.0149
1555.00,0.0149
1554.00,0.0147
1553.00,0.0145
1552.00,0.0144
1551.00,0.0144
1550.00,0.0143
1549.00,0.0142
1548.00,0.0141
1547.00,0.0140
1546.00,0.0139
1545.00,0.0138
1544.00,0.0138
1543.00,0.0137
1542.00,0.0135
1541.00,0.0133
1540.00,0.0134
1539.00,0.0134
1538.00,0.0134
1537.00,0.0134
1536.00,0.0134
1535.00,0.0133
1534.00,0.0131
1533.00,0.0131
1532.00,0.0130
1531.00,0.0129
1530.00,0.0128
1529.00,0.0127
1528.00,0.0127
1527.00,0.0126
1526.00,0.0125
1525.00,0.0124
1524.00,0.0124
1523.00,0.0123
1522.00,0.0123
1521.00,0.0123
1520.00,0.0123
1519.00,0.0122
1518.00,0.0122
1517.00,0.0120
1516.00,0.0120
1515.00,0.0120
1514.00,0.0120
1513.00,0.0119
1512.00,0.0118
1511.00,0.0118
1510.00,0.0117
1509.00,0.0115
1508.00,0.0115
1507.00,0.0116
1506.00,0.0115
1505.00,0.0114
1504.00,0.0113
1503.00,0.0113
1502.00,0.0112
1501.00,0.0111
1500.00,0.0110
1499.00,0.0109
1498.00,0.0109
1497.00,0.0109
1496.00,0.0110
1495.00,0.0111
1494.00,0.0112
1493.00,0.0112
1492.00,0.0112
1491.00,0.0111
1490.00,0.0111
1489.00,0.0111
1488.00,0.0111
1487.00,0.0111
1486.00,0.0111
1485.00,0.0110
1484.00,0.0109
1483.00,0.0109
1482.00,0.0108
1481.00,0.0108
1480.00,0.0109
1479.00,0.0109
1478.00,0.0109
1477.00,0.0109
1476.00,0.0109
1475.00,0.0108
1474.00,0.0108
1473.00,0.0108
1472.00,0.0108
1471.00,0.0108
1470.00,0.0108
1469.00,0.0108
1468.00,0.0109
1467.00,0.0108
1466.00,0.0108
1465.00,0.0109
1464.00,0.0110
1463.00,0.0110
1462.00,0.0110
1461.00,0.0110
1460.00,0.0109
1459.00,0.0109
1458.00,0.0110
1457.00,0.0112
1456.00,0.0113
1455.00,0.0112
1454.00,0.0112
1453.00,0.0112
1452.00,0.0113
1451.00,0.0113
1450.00,0.0114
1449.00,0.0115
1448.00,0.0115
1447.00,0.0116
1446.00,0.0116
1445.00,0.0116
1444.00,0.0116
1443.00,0.0117
1442.00,0.0117
1441.00,0.0117
1440.00,0.0118
1439.00,0.0119
1438.00,0.0120
1437.00,0.0121
1436.00,0.0122
1435.00,0.0122
1434.00,0.0121
1433.00,0.0121
1432.00,0.0120
1431.00,0.0120
1430.00,0.0121
1429.00,0.0121
1428.00,0.0122
1427.00,0.0122
1426.00,0.0122
1425.00,0.0122
1424.00,0.0122
1423.00,0.0123
1422.00,0.0124
1421.00,0.0125
1420.00,0.0126
1419.00,0.0127
1418.00,0.0127
1417.00,0.0127
1416.00,0.0127
1415.00,0.0127
1414.00,0.0127
1413.00,0.0127
1412.00,0.0127
1411.00,0.0128
1410.00,0.0128
1409.00,0.0127
1408.00,0.0127
1407.00,0.0127
1406.00,0.0128
1405.00,0.0129
1404.00,0.0130
1403.00,0.0131
1402.00,0.0132
1401.00,0.0132
1400.00,0.0132
1399.00,0.0133
1398.00,0.0134
1397.00,0.0134
1396.00,0.0135
1395.00,0.0136
1394.00,0.0136
1393.00,0.0136
1392.00,0.0135
1391.00,0.0135
1390.00,0.0135
1389.00,0.0136
1388.00,0.0136
1387.00,0.0137
1386.00,0.0137
1385.00,0.0138
1384.00,0.0138
1383.00,0.0137
1382.00,0.0137
1381.00,0.0137
1380.00,0.0138
1379.00,0.0138
1378.00,0.0138
1377.00,0.0138
1376.00,0.0139
1375.00,0.0139
1374.00,0.0140
1373.00,0.0141
1372.00,0.0141
1371.00,0.0142
1370.00,0.0142
1369.00,0.0143
1368.00,0.0143
1367.00,0.0143
1366.00,0.0143
1365.00,0.0142
1364.00,0.0143
1363.00,0.0143
1362.00,0.0144
1361.00,0.0145
1360.00,0.0145
1359.00,0.0145
1358.00,0.0145
1357.00,0.0144
1356.00,0.0143
1355.00,0.0143
1354.00,0.0143
1353.00,0.0143
1352.00,0.0143
1351.00,0.0142
1350.00,0.0142
1349.00,0.0142
1348.00,0.0142
1347.00,0.0143
1346.00,0.0143
1345.00,0.0143
1344.00,0.0143
1343.00,0.0143
1342.00,0.0142
1341.00,0.0142
1340.00,0.0142
1339.00,0.0143
1338.00,0.0144
1337.00,0.0144
1336.00,0.0144
1335.00,0.0144
1334.00,0.0144
1333.00,0.0143
1332.00,0.0143
1331.00,0.0143
1330.00,0.0143
1329.00,0.0142
1328.00,0.0142
1327.00,0.0142
1326.00,0.0142
1325.00,0.0142
1324.00,0.0142
1323.00,0.0142
1322.00,0.0142
1321.00,0.0141
1320.00,0.0141
1319.00,0.0141
1318.00,0.0141
1317.00,0.0142
1316.00,0.0142
1315.00,0.0142
1314.00,0.0142
1313.00,0.0142
1312.00,0.0141
1311.00,0.0141
1310.00,0.0141
1309.00,0.0141
1308.00,0.0141
1307.00,0.0141
1306.00,0.0141
1305.00,0.0141
1304.00,0.0142
1303.00,0.0142
1302.00,0.0142
1301.00,0.0142
1300.00,0.0143
1299.00,0.0143
1298.00,0.0143
1297.00,0.0143
1296.00,0.0143
1295.00,0.0143
1294.00,0.0143
1293.00,0.0143
1292.00,0.0143
1291.00,0.0144
1290.00,0.0144
1289.00,0.0145
1288.00,0.0146
1287.00,0.0146
1286.00,0.0147
1285.00,0.0147
1284.00,0.0147
1283.00,0.0147
1282.00,0.0147
1281.00,0.0147
1280.00,0.0148
1279.00,0.0148
1278.00,0.0149
1277.00,0.0149
1276.00,0.0149
1275.00,0.0149
1274.00,0.0150
1273.00,0.0150
1272.00,0.0150
1271.00,0.0151
1270.00,0.0150
1269.00,0.0150
1268.00,0.0150
1267.00,0.0150
1266.00,0.0150
1265.00,0.0149
1264.00,0.0148
1263.00,0.0148
1262.00,0.0148
1261.00,0.0149
1260.00,0.0150
1259.00,0.0150
1258.00,0.0151
1257.00,0.0151
1256.00,0.0152
1255.00,0.0152
1254.00,0.0153
1253.00,0.0155
1252.00,0.0155
1251.00,0.0156
1250.00,0.0156
1249.00,0.0156
1248.00,0.0156
1247.00,0.0156
1246.00,0.0157
1245.00,0.0158
1244.00,0.0158
1243.00,0.0158
1242.00,0.0158
1241.00,0.0158
1240.00,0.0159
1239.00,0.0159
1238.00,0.0159
1237.00,0.0159
1236.00,0.0159
1235.00,0.0160
1234.00,0.0160
1233.00,0.0159
1232.00,0.0159
1231.00,0.0159
1230.00,0.0160
1229.00,0.0159
1228.00,0.0159
1227.00,0.0159
1226.00,0.0159
1225.00,0.0159
1224.00,0.0160
1223.00,0.0161
1222.00,0.0161
1221.00,0.0160
1220.00,0.0160
1219.00,0.0160
1218.00,0.0159
1217.00,0.0159
1216.00,0.0158
1215.00,0.0158
1214.00,0.0158
1213.00,0.0158
1212.00,0.0158
1211.00,0.0159
1210.00,0.0159
1209.00,0.0159
1208.00,0.0158
1207.00,0.0158
1206.00,0.0158
1205.00,0.0158
1204.00,0.0159
1203.00,0.0159
1202.00,0.0158
1201.00,0.0157
1200.00,0.0157
1199.00,0.0157
1198.00,0.0157
1197.00,0.0157
1196.00,0.0157
1195.00,0.0157
1194.00,0.0158
1193.00,0.0158
1192.00,0.0158
1191.00,0.0159
1190.00,0.0159
1189.00,0.0159
1188.00,0.0159
1187.00,0.0159
1186.00,0.0159
1185.00,0.0159
1184.00,0.0159
1183.00,0.0159
1182.00,0.0158
1181.00,0.0157
1180.00,0.0156
1179.00,0.0157
1178.00,0.0158
1177.00,0.0158
1176.00,0.0158
1175.00,0.0158
1174.00,0.0157
1173.00,0.0157
1172.00,0.0156
1171.00,0.0156
1170.00,0.0157
1169.00,0.0158
1168.00,0.0159
1167.00,0.0159
1166.00,0.0160
1165.00,0.0159
1164.00,0.0159
1163.00,0.0159
1162.00,0.0158
1161.00,0.0158
1160.00,0.0158
1159.00,0.0159
1158.00,0.0159
1157.00,0.0158
1156.00,0.0157
1155.00,0.0157
1154.00,0.0158
1153.00,0.0158
1152.00,0.0158
1151.00,0.0158
1150.00,0.0158
1149.00,0.0158
1148.00,0.0158
1147.00,0.0159
1146.00,0.0160
1145.00,0.0160
1144.00,0.0159
1143.00,0.0158
1142.00,0.0157
1141.00,0.0155
1140.00,0.0155
1139.00,0.0155
1138.00,0.0156
1137.00,0.0157
1136.00,0.0157
1135.00,0.0157
1134.00,0.0158
1133.00,0.0158
1132.00,0.0158
1131.00,0.0158
1130.00,0.0158
1129.00,0.0158
1128.00,0.0159
1127.00,0.0159
1126.00,0.0159
1125.00,0.0159
1124.00,0.0158
1123.00,0.0157
1122.00,0.0156
1121.00,0.0156
1120.00,0.0157
1119.00,0.0158
1118.00,0.0159
1117.00,0.0160
1116.00,0.0160
1115.00,0.0160
1114.00,0.0159
1113.00,0.0158
1112.00,0.0157
1111.00,0.0156
1110.00,0.0155
1109.00,0.0155
1108.00,0.0156
1107.00,0.0157
1106.00,0.0157
1105.00,0.0157
1104.00,0.0158
1103.00,0.0159
1102.00,0.0159
1101.00,0.0159
1100.00,0.0159
1099.00,0.0158
1098.00,0.0157
1097.00,0.0156
1096.00,0.0156
1095.00,0.0156
1094.00,0.0157
1093.00,0.0157
1092.00,0.0158
1091.00,0.0158
1090.00,0.0158
1089.00,0.0159
1088.00,0.0159
1087.00,0.0159
1086.00,0.0159
1085.00,0.0158
1084.00,0.0158
1083.00,0.0159
1082.00,0.0160
1081.00,0.0160
1080.00,0.0160
1079.00,0.0159
1078.00,0.0159
1077.00,0.0159
1076.00,0.0159
1075.00,0.0160
1074.00,0.0161
1073.00,0.0161
1072.00,0.0161
1071.00,0.0161
1070.00,0.0161
1069.00,0.0161
1068.00,0.0161
1067.00,0.0161
1066.00,0.0161
1065.00,0.0161
1064.00,0.0161
1063.00,0.0160
1062.00,0.0160
1061.00,0.0160
1060.00,0.0160
1059.00,0.0160
1058.00,0.0160
1057.00,0.0160
1056.00,0.0160
1055.00,0.0160
1054.00,0.0161
1053.00,0.0162
1052.00,0.0164
1051.00,0.0165
1050.00,0.0166
1049.00,0.0166
1048.00,0.0166
1047.00,0.0166
1046.00,0.0165
1045.00,0.0164
1044.00,0.0164
1043.00,0.0163
1042.00,0.0163
1041.00,0.0162
1040.00,0.0163
1039.00,0.0163
1038.00,0.0163
1037.00,0.0163
1036.00,0.0164
1035.00,0.0164
1034.00,0.0165
1033.00,0.0165
1032.00,0.0164
1031.00,0.0163
1030.00,0.0161
1029.00,0.0160
1028.00,0.0160
1027.00,0.0158
1026.00,0.0157
1025.00,0.0156
1024.00,0.0156
1023.00,0.0157
1022.00,0.0158
1021.00,0.0158
1020.00,0.0157
1019.00,0.0157
1018.00,0.0157
1017.00,0.0158
1016.00,0.0159
1015.00,0.0159
1014.00,0.0159
1013.00,0.0159
1012.00,0.0158
1011.00,0.0158
1010.00,0.0158
1009.00,0.0158
1008.00,0.0158
1007.00,0.0159
1006.00,0.0159
1005.00,0.0159
1004.00,0.0159
1003.00,0.0160
1002.00,0.0160
1001.00,0.0160
1000.00,0.0159
999.00,0.0159
998.00,0.0158
997.00,0.0157
996.00,0.0155
995.00,0.0154
994.00,0.0153
993.00,0.0153
992.00,0.0153
991.00,0.0153
990.00,0.0152
989.00,0.0151
988.00,0.0151
987.00,0.0152
986.00,0.0152
985.00,0.0151
984.00,0.0151
983.00,0.0151
982.00,0.0151
981.00,0.0151
980.00,0.0150
979.00,0.0149
978.00,0.0149
977.00,0.0149
976.00,0.0148
975.00,0.0148
974.00,0.0147
973.00,0.0147
972.00,0.0146
971.00,0.0146
970.00,0.0147
969.00,0.0147
968.00,0.0148
967.00,0.0147
966.00,0.0147
965.00,0.0146
964.00,0.0146
963.00,0.0146
962.00,0.0145
961.00,0.0145
960.00,0.0145
959.00,0.0145
958.00,0.0144
957.00,0.0143
956.00,0.0142
955.00,0.0143
954.00,0.0144
953.00,0.0145
952.00,0.0145
951.00,0.0144
950.00,0.0144
949.00,0.0144
948.00,0.0144
947.00,0.0144
946.00,0.0145
945.00,0.0146
944.00,0.0147
943.00,0.0147
942.00,0.0147
941.00,0.0147
940.00,0.0148
939.00,0.0148
938.00,0.0148
937.00,0.0148
936.00,0.0148
935.00,0.0148
934.00,0.0149
933.00,0.0149
932.00,0.0148
931.00,0.0148
930.00,0.0147
929.00,0.0147
928.00,0.0148
927.00,0.0148
926.00,0.0149
925.00,0.0150
924.00,0.0150
923.00,0.0151
922.00,0.0152
921.00,0.0152
920.00,0.0152
919.00,0.0153
918.00,0.0154
917.00,0.0155
916.00,0.0155
915.00,0.0155
914.00,0.0154
913.00,0.0154
912.00,0.0155
911.00,0.0155
910.00,0.0155
909.00,0.0155
908.00,0.0154
907.00,0.0154
906.00,0.0154
905.00,0.0154
904.00,0.0155
903.00,0.0155
902.00,0.0155
901.00,0.0155
900.00,0.0154
899.00,0.0154
898.00,0.0153
897.00,0.0152
896.00,0.0151
895.00,0.0152
894.00,0.0153
893.00,0.0153
892.00,0.0153
891.00,0.0152
890.00,0.0152
889.00,0.0152
888.00,0.0151
887.00,0.0151
886.00,0.0152
885.00,0.0153
884.00,0.0154
883.00,0.0154
882.00,0.0154
881.00,0.0154
880.00,0.0153
879.00,0.0153
878.00,0.0154
877.00,0.0154
876.00,0.0155
875.00,0.0154
874.00,0.0154
873.00,0.0153
872.00,0.0152
871.00,0.0150
870.00,0.0149
869.00,0.0150
868.00,0.0151
867.00,0.0151
866.00,0.0150
865.00,0.0150
864.00,0.0151
863.00,0.0152
862.00,0.0153
861.00,0.0153
860.00,0.0154
859.00,0.0155
858.00,0.0155
857.00,0.0153
856.00,0.0152
855.00,0.0152
854.00,0.0153
853.00,0.0154
852.00,0.0153
851.00,0.0152
850.00,0.0152
849.00,0.0152
848.00,0.0153
847.00,0.0155
846.00,0.0156
845.00,0.0157
844.00,0.0157
843.00,0.0159
842.00,0.0160
841.00,0.0161
840.00,0.0161
839.00,0.0162
838.00,0.0162
837.00,0.0164
836.00,0.0165
835.00,0.0165
834.00,0.0164
833.00,0.0164
832.00,0.0164
831.00,0.0165
830.00,0.0166
829.00,0.0166
828.00,0.0165
827.00,0.0164
826.00,0.0164
825.00,0.0164
824.00,0.0164
823.00,0.0164
822.00,0.0165
821.00,0.0166
820.00,0.0167
819.00,0.0167
818.00,0.0166
817.00,0.0164
816.00,0.0163
815.00,0.0162
814.00,0.0161
813.00,0.0162
812.00,0.0162
811.00,0.0163
810.00,0.0164
809.00,0.0166
808.00,0.0167
807.00,0.0168
806.00,0.0168
805.00,0.0167
804.00,0.0165
803.00,0.0164
802.00,0.0165
801.00,0.0168
800.00,0.0171
799.00,0.0171
798.00,0.0171
797.00,0.0170
796.00,0.0170
795.00,0.0171
794.00,0.0171
793.00,0.0171
792.00,0.0172
791.00,0.0173
790.00,0.0175
789.00,0.0177
788.00,0.0179
787.00,0.0180
786.00,0.0181
785.00,0.0182
784.00,0.0182
783.00,0.0181
782.00,0.0180
781.00,0.0180
780.00,0.0182
779.00,0.0183
778.00,0.0182
777.00,0.0181
776.00,0.0181
775.00,0.0182
774.00,0.0184
773.00,0.0187
772.00,0.0189
771.00,0.0190
770.00,0.0189
769.00,0.0188
768.00,0.0186
767.00,0.0185
766.00,0.0185
765.00,0.0185
764.00,0.0187
763.00,0.0187
762.00,0.0187
761.00,0.0188
760.00,0.0189
759.00,0.0193
758.00,0.0196
757.00,0.0199
756.00,0.0199
755.00,0.0198
754.00,0.0195
753.00,0.0194
752.00,0.0194
751.00,0.0195
750.00,0.0196
749.00,0.0196
748.00,0.0195
747.00,0.0195
746.00,0.0195
745.00,0.0196
744.00,0.0197
743.00,0.0197
742.00,0.0196
741.00,0.0195
740.00,0.0193
739.00,0.0193
738.00,0.0192
737.00,0.0192
736.00,0.0192
735.00,0.0193
734.00,0.0193
733.00,0.0193
732.00,0.0193
731.00,0.0193
730.00,0.0194
729.00,0.0194
728.00,0.0194
727.00,0.0193
726.00,0.0192
725.00,0.0192
724.00,0.0193
723.00,0.0194
722.00,0.0195
721.00,0.0196
720.00,0.0196
719.00,0.0196
718.00,0.0197
717.00,0.0197
716.00,0.0198
715.00,0.0199
714.00,0.0201
713.00,0.0203
712.00,0.0206
711.00,0.0208
710.00,0.0208
709.00,0.0205
708.00,0.0203
707.00,0.0203
706.00,0.0204
705.00,0.0207
704.00,0.0210
703.00,0.0212
702.00,0.0210
701.00,0.0207
700.00,0.0206
699.00,0.0207
698.00,0.0210
697.00,0.0214
696.00,0.0216
695.00,0.0215
694.00,0.0211
693.00,0.0207
692.00,0.0204
691.00,0.0203
690.00,0.0204
689.00,0.0205
688.00,0.0205
687.00,0.0204
686.00,0.0202
685.00,0.0200
684.00,0.0199
683.00,0.0200
682.00,0.0204
681.00,0.0207
680.00,0.0208
679.00,0.0206
678.00,0.0204
677.00,0.0205
676.00,0.0210
675.00,0.0216
674.00,0.0219
673.00,0.0219
672.00,0.0216
671.00,0.0213
670.00,0.0215
669.00,0.0225
668.00,0.0241
667.00,0.0253
666.00,0.0253
665.00,0.0242
664.00,0.0230
663.00,0.0222
662.00,0.0219
661.00,0.0221
660.00,0.0224
659.00,0.0227
658.00,0.0229
657.00,0.0229
656.00,0.0227
655.00,0.0225
654.00,0.0222
653.00,0.0222
652.00,0.0220
651.00,0.0222
650.00,0.0222
