Created as New Dataset,
cm-1,A
4000.00,0.0092
3999.00,0.0092
3998.00,0.0092
3997.00,0.0092
3996.00,0.0093
3995.00,0.0093
3994.00,0.0093
3993.00,0.0092
3992.00,0.0092
3991.00,0.0092
3990.00,0.0091
3989.00,0.0091
3988.00,0.0091
3987.00,0.0092
3986.00,0.0092
3985.00,0.0092
3984.00,0.0092
3983.00,0.0092
3982.00,0.0092
3981.00,0.0092
3980.00,0.0092
3979.00,0.0092
3978.00,0.0092
3977.00,0.0091
3976.00,0.0091
3975.00,0.0091
3974.00,0.0091
3973.00,0.0091
3972.00,0.0091
3971.00,0.0090
3970.00,0.0090
3969.00,0.0089
3968.00,0.0089
3967.00,0.0089
3966.00,0.0089
3965.00,0.0089
3964.00,0.0090
3963.00,0.0090
3962.00,0.0090
3961.00,0.0090
3960.00,0.0090
3959.00,0.0091
3958.00,0.0091
3957.00,0.0090
3956.00,0.0090
3955.00,0.0089
3954.00,0.0089
3953.00,0.0088
3952.00,0.0087
3951.00,0.0087
3950.00,0.0087
3949.00,0.0087
3948.00,0.0087
3947.00,0.0087
3946.00,0.0087
3945.00,0.0087
3944.00,0.0088
3943.00,0.0088
3942.00,0.0088
3941.00,0.0088
3940.00,0.0088
3939.00,0.0089
3938.00,0.0089
3937.00,0.0088
3936.00,0.0087
3935.00,0.0087
3934.00,0.0086
3933.00,0.0086
3932.00,0.0087
3931.00,0.0087
3930.00,0.0086
3929.00,0.0086
3928.00,0.0085
3927.00,0.0085
3926.00,0.0085
3925.00,0.0085
3924.00,0.0085
3923.00,0.0085
3922.00,0.0084
3921.00,0.0084
3920.00,0.0084
3919.00,0.0085
3918.00,0.0085
3917.00,0.0086
3916.00,0.0086
3915.00,0.0086
3914.00,0.0086
3913.00,0.0088
3912.00,0.0088
3911.00,0.0088
3910.00,0.0088
3909.00,0.0086
3908.00,0.0084
3907.00,0.0082
3906.00,0.0080
3905.00,0.0079
3904.00,0.0078
3903.00,0.0077
3902.00,0.0077
3901.00,0.0079
3900.00,0.0081
3899.00,0.0082
3898.00,0.0082
3897.00,0.0082
3896.00,0.0083
3895.00,0.0083
3894.00,0.0083
3893.00,0.0083
3892.00,0.0084
3891.00,0.0083
3890.00,0.0081
3889.00,0.0080
3888.00,0.0081
3887.00,0.0083
3886.00,0.0084
3885.00,0.0082
3884.00,0.0080
3883.00,0.0079
3882.00,0.0080
3881.00,0.0082
3880.00,0.0082
3879.00,0.0080
3878.00,0.0080
3877.00,0.0081
3876.00,0.0082
3875.00,0.0082
3874.00,0.0079
3873.00,0.0077
3872.00,0.0076
3871.00,0.0077
3870.00,0.0078
3869.00,0.0076
3868.00,0.0075
3867.00,0.0076
3866.00,0.0079
3865.00,0.0080
3864.00,0.0080
3863.00,0.0080
3862.00,0.0080
3861.00,0.0081
3860.00,0.0081
3859.00,0.0080
3858.00,0.0078
3857.00,0.0074
3856.00,0.0071
3855.00,0.0071
3854.00,0.0074
3853.00,0.0075
3852.00,0.0071
3851.00,0.0071
3850.00,0.0076
3849.00,0.0081
3848.00,0.0082
3847.00,0.0082
3846.00,0.0081
3845.00,0.0080
3844.00,0.0078
3843.00,0.0075
3842.00,0.0073
3841.00,0.0072
3840.00,0.0072
3839.00,0.0074
3838.00,0.0074
3837.00,0.0074
3836.00,0.0073
3835.00,0.0074
3834.00,0.0076
3833.00,0.0079
3832.00,0.0080
3831.00,0.0080
3830.00,0.0080
3829.00,0.0081
3828.00,0.0082
3827.00,0.0082
3826.00,0.0080
3825.00,0.0077
3824.00,0.0074
3823.00,0.0074
3822.00,0.0075
3821.00,0.0075
3820.00,0.0072
3819.00,0.0071
3818.00,0.0073
3817.00,0.0078
3816.00,0.0080
3815.00,0.0080
3814.00,0.0079
3813.00,0.0081
3812.00,0.0083
3811.00,0.0082
3810.00,0.0081
3809.00,0.0080
3808.00,0.0080
3807.00,0.0079
3806.00,0.0076
3805.00,0.0073
3804.00,0.0073
3803.00,0.0075
3802.00,0.0077
3801.00,0.0077
3800.00,0.0074
3799.00,0.0074
3798.00,0.0077
3797.00,0.0080
3796.00,0.0082
3795.00,0.0082
3794.00,0.0083
3793.00,0.0085
3792.00,0.0086
3791.00,0.0086
3790.00,0.0085
3789.00,0.0085
3788.00,0.0084
3787.00,0.0083
3786.00,0.0083
3785.00,0.0082
3784.00,0.0081
3783.00,0.0080
3782.00,0.0080
3781.00,0.0080
3780.00,0.0081
3779.00,0.0081
3778.00,0.0081
3777.00,0.0081
3776.00,0.0083
3775.00,0.0083
3774.00,0.0083
3773.00,0.0081
3772.00,0.0080
3771.00,0.0080
3770.00,0.0079
3769.00,0.0078
3768.00,0.0077
3767.00,0.0079
3766.00,0.0080
3765.00,0.0080
3764.00,0.0079
3763.00,0.0079
3762.00,0.0079
3761.00,0.0080
3760.00,0.0079
3759.00,0.0078
3758.00,0.0077
3757.00,0.0076
3756.00,0.0074
3755.00,0.0072
3754.00,0.0070
3753.00,0.0068
3752.00,0.0067
3751.00,0.0069
3750.00,0.0069
3749.00,0.0068
3748.00,0.0067
3747.00,0.0068
3746.00,0.0071
3745.00,0.0074
3744.00,0.0074
3743.00,0.0071
3742.00,0.0071
3741.00,0.0074
3740.00,0.0075
3739.00,0.0073
3738.00,0.0070
3737.00,0.0068
3736.00,0.0068
3735.00,0.0067
3734.00,0.0068
3733.00,0.0070
3732.00,0.0072
3731.00,0.0073
3730.00,0.0074
3729.00,0.0076
3728.00,0.0077
3727.00,0.0077
3726.00,0.0076
3725.00,0.0075
3724.00,0.0075
3723.00,0.0076
3722.00,0.0077
3721.00,0.0078
3720.00,0.0079
3719.00,0.0080
3718.00,0.0081
3717.00,0.0081
3716.00,0.0080
3715.00,0.0079
3714.00,0.0078
3713.00,0.0079
3712.00,0.0080
3711.00,0.0081
3710.00,0.0081
3709.00,0.0082
3708.00,0.0083
3707.00,0.0085
3706.00,0.0086
3705.00,0.0087
3704.00,0.0088
3703.00,0.0090
3702.00,0.0092
3701.00,0.0092
3700.00,0.0092
3699.00,0.0093
3698.00,0.0095
3697.00,0.0096
3696.00,0.0095
3695.00,0.0094
3694.00,0.0092
3693.00,0.0090
3692.00,0.0087
3691.00,0.0087
3690.00,0.0088
3689.00,0.0089
3688.00,0.0088
3687.00,0.0089
3686.00,0.0091
3685.00,0.0093
3684.00,0.0095
3683.00,0.0094
3682.00,0.0092
3681.00,0.0089
3680.00,0.0085
3679.00,0.0080
3678.00,0.0077
3677.00,0.0078
3676.00,0.0082
3675.00,0.0082
3674.00,0.0079
3673.00,0.0079
3672.00,0.0082
3671.00,0.0086
3670.00,0.0088
3669.00,0.0088
3668.00,0.0088
3667.00,0.0091
3666.00,0.0095
3665.00,0.0097
3664.00,0.0098
3663.00,0.0098
3662.00,0.0098
3661.00,0.0097
3660.00,0.0095
3659.00,0.0094
3658.00,0.0095
3657.00,0.0096
3656.00,0.0097
3655.00,0.0095
3654.00,0.0092
3653.00,0.0090
3652.00,0.0087
3651.00,0.0084
3650.00,0.0085
3649.00,0.0088
3648.00,0.0089
3647.00,0.0090
3646.00,0.0092
3645.00,0.0096
3644.00,0.0099
3643.00,0.0101
3642.00,0.0102
3641.00,0.0102
3640.00,0.0101
3639.00,0.0102
3638.00,0.0102
3637.00,0.0101
3636.00,0.0101
3635.00,0.0100
3634.00,0.0098
3633.00,0.0094
3632.00,0.0092
3631.00,0.0091
3630.00,0.0094
3629.00,0.0098
3628.00,0.0098
3627.00,0.0098
3626.00,0.0100
3625.00,0.0104
3624.00,0.0105
3623.00,0.0105
3622.00,0.0104
3621.00,0.0104
3620.00,0.0105
3619.00,0.0105
3618.00,0.0104
3617.00,0.0102
3616.00,0.0101
3615.00,0.0101
3614.00,0.0100
3613.00,0.0100
3612.00,0.0101
3611.00,0.0102
3610.00,0.0104
3609.00,0.0105
3608.00,0.0105
3607.00,0.0104
3606.00,0.0104
3605.00,0.0104
3604.00,0.0105
3603.00,0.0105
3602.00,0.0105
3601.00,0.0105
3600.00,0.0104
3599.00,0.0103
3598.00,0.0102
3597.00,0.0102
3596.00,0.0103
3595.00,0.0104
3594.00,0.0105
3593.00,0.0105
3592.00,0.0104
3591.00,0.0103
3590.00,0.0103
3589.00,0.0103
3588.00,0.0104
3587.00,0.0105
3586.00,0.0106
3585.00,0.0107
3584.00,0.0109
3583.00,0.0110
3582.00,0.0111
3581.00,0.0112
3580.00,0.0112
3579.00,0.0112
3578.00,0.0112
3577.00,0.0112
3576.00,0.0112
3575.00,0.0111
3574.00,0.0111
3573.00,0.0111
3572.00,0.0109
3571.00,0.0107
3570.00,0.0105
3569.00,0.0103
3568.00,0.0104
3567.00,0.0105
3566.00,0.0106
3565.00,0.0108
3564.00,0.0110
3563.00,0.0112
3562.00,0.0113
3561.00,0.0114
3560.00,0.0115
3559.00,0.0115
3558.00,0.0115
3557.00,0.0115
3556.00,0.0114
3555.00,0.0114
3554.00,0.0113
3553.00,0.0114
3552.00,0.0114
3551.00,0.0114
3550.00,0.0114
3549.00,0.0113
3548.00,0.0113
3547.00,0.0114
3546.00,0.0115
3545.00,0.0116
3544.00,0.0117
3543.00,0.0118
3542.00,0.0118
3541.00,0.0119
3540.00,0.0119
3539.00,0.0119
3538.00,0.0120
3537.00,0.0120
3536.00,0.0120
3535.00,0.0120
3534.00,0.0120
3533.00,0.0120
3532.00,0.0119
3531.00,0.0119
3530.00,0.0118
3529.00,0.0118
3528.00,0.0118
3527.00,0.0118
3526.00,0.0118
3525.00,0.0118
3524.00,0.0119
3523.00,0.0120
3522.00,0.0121
3521.00,0.0121
3520.00,0.0122
3519.00,0.0122
3518.00,0.0123
3517.00,0.0123
3516.00,0.0124
3515.00,0.0124
3514.00,0.0124
3513.00,0.0124
3512.00,0.0123
3511.00,0.0123
3510.00,0.0124
3509.00,0.0124
3508.00,0.0124
3507.00,0.0124
3506.00,0.0124
3505.00,0.0124
3504.00,0.0124
3503.00,0.0124
3502.00,0.0125
3501.00,0.0125
3500.00,0.0126
3499.00,0.0127
3498.00,0.0127
3497.00,0.0127
3496.00,0.0127
3495.00,0.0127
3494.00,0.0127
3493.00,0.0127
3492.00,0.0127
3491.00,0.0127
3490.00,0.0126
3489.00,0.0125
3488.00,0.0126
3487.00,0.0126
3486.00,0.0127
3485.00,0.0128
3484.00,0.0128
3483.00,0.0128
3482.00,0.0128
3481.00,0.0129
3480.00,0.0129
3479.00,0.0130
3478.00,0.0130
3477.00,0.0130
3476.00,0.0130
3475.00,0.0130
3474.00,0.0130
3473.00,0.0131
3472.00,0.0132
3471.00,0.0132
3470.00,0.0132
3469.00,0.0132
3468.00,0.0132
3467.00,0.0132
3466.00,0.0131
3465.00,0.0131
3464.00,0.0132
3463.00,0.0132
3462.00,0.0132
3461.00,0.0131
3460.00,0.0131
3459.00,0.0131
3458.00,0.0131
3457.00,0.0132
3456.00,0.0133
3455.00,0.0133
3454.00,0.0134
3453.00,0.0134
3452.00,0.0134
3451.00,0.0133
3450.00,0.0132
3449.00,0.0132
3448.00,0.0131
3447.00,0.0131
3446.00,0.0132
3445.00,0.0132
3444.00,0.0133
3443.00,0.0133
3442.00,0.0134
3441.00,0.0134
3440.00,0.0134
3439.00,0.0134
3438.00,0.0134
3437.00,0.0134
3436.00,0.0134
3435.00,0.0134
3434.00,0.0134
3433.00,0.0134
3432.00,0.0134
3431.00,0.0134
3430.00,0.0134
3429.00,0.0134
3428.00,0.0134
3427.00,0.0135
3426.00,0.0135
3425.00,0.0135
3424.00,0.0135
3423.00,0.0135
3422.00,0.0134
3421.00,0.0134
3420.00,0.0134
3419.00,0.0134
3418.00,0.0135
3417.00,0.0135
3416.00,0.0135
3415.00,0.0135
3414.00,0.0136
3413.00,0.0136
3412.00,0.0137
3411.00,0.0137
3410.00,0.0137
3409.00,0.0137
3408.00,0.0137
3407.00,0.0137
3406.00,0.0138
3405.00,0.0138
3404.00,0.0138
3403.00,0.0138
3402.00,0.0138
3401.00,0.0137
3400.00,0.0137
3399.00,0.0136
3398.00,0.0136
3397.00,0.0136
3396.00,0.0136
3395.00,0.0137
3394.00,0.0137
3393.00,0.0137
3392.00,0.0137
3391.00,0.0137
3390.00,0.0137
3389.00,0.0137
3388.00,0.0137
3387.00,0.0137
3386.00,0.0138
3385.00,0.0138
3384.00,0.0138
3383.00,0.0137
3382.00,0.0137
3381.00,0.0136
3380.00,0.0136
3379.00,0.0136
3378.00,0.0136
3377.00,0.0136
3376.00,0.0137
3375.00,0.0137
3374.00,0.0137
3373.00,0.0138
3372.00,0.0138
3371.00,0.0138
3370.00,0.0138
3369.00,0.0137
3368.00,0.0137
3367.00,0.0137
3366.00,0.0138
3365.00,0.0138
3364.00,0.0138
3363.00,0.0138
3362.00,0.0138
3361.00,0.0138
3360.00,0.0138
3359.00,0.0138
3358.00,0.0138
3357.00,0.0138
3356.00,0.0139
3355.00,0.0139
3354.00,0.0138
3353.00,0.0138
3352.00,0.0138
3351.00,0.0138
3350.00,0.0138
3349.00,0.0138
3348.00,0.0137
3347.00,0.0137
3346.00,0.0137
3345.00,0.0138
3344.00,0.0138
3343.00,0.0139
3342.00,0.0139
3341.00,0.0138
3340.00,0.0138
3339.00,0.0138
3338.00,0.0138
3337.00,0.0139
3336.00,0.0139
3335.00,0.0139
3334.00,0.0138
3333.00,0.0138
3332.00,0.0138
3331.00,0.0138
3330.00,0.0138
3329.00,0.0138
3328.00,0.0138
3327.00,0.0138
3326.00,0.0138
3325.00,0.0139
3324.00,0.0139
3323.00,0.0139
3322.00,0.0139
3321.00,0.0139
3320.00,0.0139
3319.00,0.0138
3318.00,0.0138
3317.00,0.0138
3316.00,0.0138
3315.00,0.0137
3314.00,0.0137
3313.00,0.0137
3312.00,0.0137
3311.00,0.0137
3310.00,0.0137
3309.00,0.0138
3308.00,0.0138
3307.00,0.0138
3306.00,0.0139
3305.00,0.0139
3304.00,0.0140
3303.00,0.0139
3302.00,0.0139
3301.00,0.0138
3300.00,0.0138
3299.00,0.0138
3298.00,0.0138
3297.00,0.0138
3296.00,0.0138
3295.00,0.0138
3294.00,0.0138
3293.00,0.0137
3292.00,0.0138
3291.00,0.0138
3290.00,0.0138
3289.00,0.0138
3288.00,0.0138
3287.00,0.0138
3286.00,0.0139
3285.00,0.0139
3284.00,0.0139
3283.00,0.0139
3282.00,0.0138
3281.00,0.0138
3280.00,0.0138
3279.00,0.0137
3278.00,0.0137
3277.00,0.0137
3276.00,0.0137
3275.00,0.0138
3274.00,0.0138
3273.00,0.0139
3272.00,0.0139
3271.00,0.0139
3270.00,0.0138
3269.00,0.0138
3268.00,0.0138
3267.00,0.0138
3266.00,0.0138
3265.00,0.0138
3264.00,0.0138
3263.00,0.0138
3262.00,0.0138
3261.00,0.0138
3260.00,0.0138
3259.00,0.0138
3258.00,0.0138
3257.00,0.0138
3256.00,0.0138
3255.00,0.0138
3254.00,0.0138
3253.00,0.0137
3252.00,0.0136
3251.00,0.0136
3250.00,0.0136
3249.00,0.0136
3248.00,0.0137
3247.00,0.0138
3246.00,0.0138
3245.00,0.0138
3244.00,0.0138
3243.00,0.0138
3242.00,0.0138
3241.00,0.0137
3240.00,0.0137
3239.00,0.0137
3238.00,0.0137
3237.00,0.0137
3236.00,0.0137
3235.00,0.0137
3234.00,0.0138
3233.00,0.0138
3232.00,0.0139
3231.00,0.0139
3230.00,0.0139
3229.00,0.0139
3228.00,0.0138
3227.00,0.0138
3226.00,0.0138
3225.00,0.0138
3224.00,0.0138
3223.00,0.0137
3222.00,0.0137
3221.00,0.0137
3220.00,0.0136
3219.00,0.0136
3218.00,0.0136
3217.00,0.0136
3216.00,0.0136
3215.00,0.0136
3214.00,0.0136
3213.00,0.0136
3212.00,0.0137
3211.00,0.0137
3210.00,0.0138
3209.00,0.0138
3208.00,0.0138
3207.00,0.0138
3206.00,0.0138
3205.00,0.0137
3204.00,0.0137
3203.00,0.0137
3202.00,0.0137
3201.00,0.0137
3200.00,0.0137
3199.00,0.0137
3198.00,0.0137
3197.00,0.0137
3196.00,0.0136
3195.00,0.0136
3194.00,0.0136
3193.00,0.0136
3192.00,0.0136
3191.00,0.0136
3190.00,0.0136
3189.00,0.0136
3188.00,0.0136
3187.00,0.0136
3186.00,0.0136
3185.00,0.0136
3184.00,0.0136
3183.00,0.0136
3182.00,0.0136
3181.00,0.0136
3180.00,0.0136
3179.00,0.0136
3178.00,0.0136
3177.00,0.0136
3176.00,0.0136
3175.00,0.0136
3174.00,0.0136
3173.00,0.0136
3172.00,0.0136
3171.00,0.0136
3170.00,0.0136
3169.00,0.0136
3168.00,0.0135
3167.00,0.0135
3166.00,0.0135
3165.00,0.0135
3164.00,0.0135
3163.00,0.0134
3162.00,0.0134
3161.00,0.0134
3160.00,0.0134
3159.00,0.0135
3158.00,0.0135
3157.00,0.0134
3156.00,0.0134
3155.00,0.0134
3154.00,0.0134
3153.00,0.0134
3152.00,0.0134
3151.00,0.0134
3150.00,0.0134
3149.00,0.0134
3148.00,0.0134
3147.00,0.0134
3146.00,0.0134
3145.00,0.0134
3144.00,0.0134
3143.00,0.0134
3142.00,0.0134
3141.00,0.0134
3140.00,0.0134
3139.00,0.0134
3138.00,0.0133
3137.00,0.0133
3136.00,0.0133
3135.00,0.0133
3134.00,0.0133
3133.00,0.0132
3132.00,0.0132
3131.00,0.0132
3130.00,0.0133
3129.00,0.0133
3128.00,0.0133
3127.00,0.0133
3126.00,0.0133
3125.00,0.0132
3124.00,0.0132
3123.00,0.0132
3122.00,0.0132
3121.00,0.0132
3120.00,0.0132
3119.00,0.0132
3118.00,0.0132
3117.00,0.0132
3116.00,0.0132
3115.00,0.0132
3114.00,0.0132
3113.00,0.0132
3112.00,0.0132
3111.00,0.0132
3110.00,0.0132
3109.00,0.0131
3108.00,0.0131
3107.00,0.0131
3106.00,0.0131
3105.00,0.0131
3104.00,0.0131
3103.00,0.0132
3102.00,0.0132
3101.00,0.0132
3100.00,0.0132
3099.00,0.0132
3098.00,0.0132
3097.00,0.0132
3096.00,0.0132
3095.00,0.0132
3094.00,0.0132
3093.00,0.0132
3092.00,0.0132
3091.00,0.0132
3090.00,0.0132
3089.00,0.0132
3088.00,0.0132
3087.00,0.0132
3086.00,0.0132
3085.00,0.0132
3084.00,0.0131
3083.00,0.0131
3082.00,0.0131
3081.00,0.0131
3080.00,0.0131
3079.00,0.0130
3078.00,0.0130
3077.00,0.0130
3076.00,0.0130
3075.00,0.0130
3074.00,0.0130
3073.00,0.0130
3072.00,0.0130
3071.00,0.0130
3070.00,0.0131
3069.00,0.0130
3068.00,0.0130
3067.00,0.0130
3066.00,0.0130
3065.00,0.0130
3064.00,0.0130
3063.00,0.0130
3062.00,0.0130
3061.00,0.0130
3060.00,0.0130
3059.00,0.0129
3058.00,0.0129
3057.00,0.0130
3056.00,0.0130
3055.00,0.0130
3054.00,0.0131
3053.00,0.0131
3052.00,0.0131
3051.00,0.0130
3050.00,0.0129
3049.00,0.0129
3048.00,0.0128
3047.00,0.0128
3046.00,0.0128
3045.00,0.0129
3044.00,0.0129
3043.00,0.0129
3042.00,0.0129
3041.00,0.0129
3040.00,0.0129
3039.00,0.0129
3038.00,0.0129
3037.00,0.0129
3036.00,0.0129
3035.00,0.0129
3034.00,0.0128
3033.00,0.0128
3032.00,0.0129
3031.00,0.0129
3030.00,0.0129
3029.00,0.0129
3028.00,0.0128
3027.00,0.0128
3026.00,0.0128
3025.00,0.0128
3024.00,0.0128
3023.00,0.0128
3022.00,0.0128
3021.00,0.0128
3020.00,0.0128
3019.00,0.0128
3018.00,0.0128
3017.00,0.0127
3016.00,0.0127
3015.00,0.0127
3014.00,0.0127
3013.00,0.0128
3012.00,0.0128
3011.00,0.0128
3010.00,0.0128
3009.00,0.0128
3008.00,0.0128
3007.00,0.0128
3006.00,0.0128
3005.00,0.0128
3004.00,0.0129
3003.00,0.0129
3002.00,0.0129
3001.00,0.0129
3000.00,0.0129
2999.00,0.0129
2998.00,0.0129
2997.00,0.0129
2996.00,0.0129
2995.00,0.0129
2994.00,0.0129
2993.00,0.0129
2992.00,0.0128
2991.00,0.0128
2990.00,0.0128
2989.00,0.0128
2988.00,0.0129
2987.00,0.0129
2986.00,0.0130
2985.00,0.0131
2984.00,0.0131
2983.00,0.0132
2982.00,0.0132
2981.00,0.0131
2980.00,0.0131
2979.00,0.0131
2978.00,0.0130
2977.00,0.0130
2976.00,0.0129
2975.00,0.0129
2974.00,0.0128
2973.00,0.0128
2972.00,0.0128
2971.00,0.0127
2970.00,0.0126
2969.00,0.0126
2968.00,0.0125
2967.00,0.0125
2966.00,0.0124
2965.00,0.0124
2964.00,0.0123
2963.00,0.0122
2962.00,0.0121
2961.00,0.0121
2960.00,0.0121
2959.00,0.0121
2958.00,0.0121
2957.00,0.0121
2956.00,0.0121
2955.00,0.0120
2954.00,0.0121
2953.00,0.0121
2952.00,0.0121
2951.00,0.0121
2950.00,0.0121
2949.00,0.0120
2948.00,0.0120
2947.00,0.0120
2946.00,0.0121
2945.00,0.0121
2944.00,0.0121
2943.00,0.0120
2942.00,0.0120
2941.00,0.0119
2940.00,0.0119
2939.00,0.0119
2938.00,0.0118
2937.00,0.0117
2936.00,0.0117
2935.00,0.0116
2934.00,0.0116
2933.00,0.0115
2932.00,0.0115
2931.00,0.0114
2930.00,0.0113
2929.00,0.0112
2928.00,0.0110
2927.00,0.0109
2926.00,0.0109
2925.00,0.0108
2924.00,0.0108
2923.00,0.0108
2922.00,0.0108
2921.00,0.0108
2920.00,0.0108
2919.00,0.0107
2918.00,0.0106
2917.00,0.0106
2916.00,0.0107
2915.00,0.0108
2914.00,0.0110
2913.00,0.0112
2912.00,0.0113
2911.00,0.0114
2910.00,0.0115
2909.00,0.0115
2908.00,0.0116
2907.00,0.0117
2906.00,0.0117
2905.00,0.0117
2904.00,0.0117
2903.00,0.0117
2902.00,0.0117
2901.00,0.0117
2900.00,0.0118
2899.00,0.0118
2898.00,0.0118
2897.00,0.0118
2896.00,0.0118
2895.00,0.0118
2894.00,0.0118
2893.00,0.0118
2892.00,0.0119
2891.00,0.0119
2890.00,0.0119
2889.00,0.0119
2888.00,0.0119
2887.00,0.0119
2886.00,0.0120
2885.00,0.0120
2884.00,0.0120
2883.00,0.0120
2882.00,0.0121
2881.00,0.0120
2880.00,0.0119
2879.00,0.0119
2878.00,0.0118
2877.00,0.0118
2876.00,0.0117
2875.00,0.0117
2874.00,0.0116
2873.00,0.0116
2872.00,0.0116
2871.00,0.0116
2870.00,0.0116
2869.00,0.0116
2868.00,0.0115
2867.00,0.0115
2866.00,0.0114
2865.00,0.0113
2864.00,0.0113
2863.00,0.0113
2862.00,0.0113
2861.00,0.0113
2860.00,0.0112
2859.00,0.0112
2858.00,0.0112
2857.00,0.0111
2856.00,0.0111
2855.00,0.0110
2854.00,0.0110
2853.00,0.0110
2852.00,0.0109
2851.00,0.0109
2850.00,0.0109
2849.00,0.0109
2848.00,0.0109
2847.00,0.0109
2846.00,0.0110
2845.00,0.0110
2844.00,0.0111
2843.00,0.0112
2842.00,0.0113
2841.00,0.0114
2840.00,0.0114
2839.00,0.0115
2838.00,0.0115
2837.00,0.0115
2836.00,0.0115
2835.00,0.0115
2834.00,0.0114
2833.00,0.0114
2832.00,0.0114
2831.00,0.0114
2830.00,0.0114
2829.00,0.0114
2828.00,0.0114
2827.00,0.0114
2826.00,0.0115
2825.00,0.0115
2824.00,0.0114
2823.00,0.0114
2822.00,0.0114
2821.00,0.0114
2820.00,0.0114
2819.00,0.0114
2818.00,0.0114
2817.00,0.0114
2816.00,0.0114
2815.00,0.0113
2814.00,0.0113
2813.00,0.0113
2812.00,0.0112
2811.00,0.0112
2810.00,0.0112
2809.00,0.0112
2808.00,0.0112
2807.00,0.0112
2806.00,0.0112
2805.00,0.0112
2804.00,0.0112
2803.00,0.0112
2802.00,0.0112
2801.00,0.0112
2800.00,0.0111
2799.00,0.0111
2798.00,0.0111
2797.00,0.0111
2796.00,0.0111
2795.00,0.0111
2794.00,0.0110
2793.00,0.0110
2792.00,0.0110
2791.00,0.0110
2790.00,0.0110
2789.00,0.0111
2788.00,0.0111
2787.00,0.0111
2786.00,0.0111
2785.00,0.0110
2784.00,0.0110
2783.00,0.0110
2782.00,0.0110
2781.00,0.0110
2780.00,0.0110
2779.00,0.0109
2778.00,0.0109
2777.00,0.0110
2776.00,0.0110
2775.00,0.0110
2774.00,0.0110
2773.00,0.0109
2772.00,0.0109
2771.00,0.0109
2770.00,0.0109
2769.00,0.0109
2768.00,0.0109
2767.00,0.0109
2766.00,0.0109
2765.00,0.0108
2764.00,0.0108
2763.00,0.0108
2762.00,0.0108
2761.00,0.0108
2760.00,0.0108
2759.00,0.0108
2758.00,0.0108
2757.00,0.0108
2756.00,0.0107
2755.00,0.0107
2754.00,0.0107
2753.00,0.0108
2752.00,0.0108
2751.00,0.0108
2750.00,0.0108
2749.00,0.0108
2748.00,0.0108
2747.00,0.0108
2746.00,0.0108
2745.00,0.0107
2744.00,0.0106
2743.00,0.0106
2742.00,0.0106
2741.00,0.0106
2740.00,0.0106
2739.00,0.0106
2738.00,0.0106
2737.00,0.0105
2736.00,0.0105
2735.00,0.0105
2734.00,0.0105
2733.00,0.0105
2732.00,0.0105
2731.00,0.0105
2730.00,0.0105
2729.00,0.0105
2728.00,0.0105
2727.00,0.0105
2726.00,0.0105
2725.00,0.0105
2724.00,0.0105
2723.00,0.0105
2722.00,0.0105
2721.00,0.0105
2720.00,0.0105
2719.00,0.0105
2718.00,0.0104
2717.00,0.0104
2716.00,0.0104
2715.00,0.0104
2714.00,0.0104
2713.00,0.0104
2712.00,0.0104
2711.00,0.0105
2710.00,0.0105
2709.00,0.0105
2708.00,0.0104
2707.00,0.0104
2706.00,0.0104
2705.00,0.0103
2704.00,0.0103
2703.00,0.0103
2702.00,0.0103
2701.00,0.0103
2700.00,0.0102
2699.00,0.0102
2698.00,0.0102
2697.00,0.0102
2696.00,0.0103
2695.00,0.0103
2694.00,0.0103
2693.00,0.0103
2692.00,0.0103
2691.00,0.0103
2690.00,0.0103
2689.00,0.0102
2688.00,0.0103
2687.00,0.0103
2686.00,0.0103
2685.00,0.0102
2684.00,0.0102
2683.00,0.0102
2682.00,0.0102
2681.00,0.0102
2680.00,0.0102
2679.00,0.0102
2678.00,0.0102
2677.00,0.0102
2676.00,0.0102
2675.00,0.0102
2674.00,0.0101
2673.00,0.0101
2672.00,0.0101
2671.00,0.0101
2670.00,0.0101
2669.00,0.0101
2668.00,0.0101
2667.00,0.0101
2666.00,0.0101
2665.00,0.0101
2664.00,0.0101
2663.00,0.0102
2662.00,0.0102
2661.00,0.0102
2660.00,0.0102
2659.00,0.0102
2658.00,0.0102
2657.00,0.0102
2656.00,0.0102
2655.00,0.0102
2654.00,0.0102
2653.00,0.0102
2652.00,0.0102
2651.00,0.0102
2650.00,0.0102
2649.00,0.0103
2648.00,0.0103
2647.00,0.0103
2646.00,0.0103
2645.00,0.0103
2644.00,0.0103
2643.00,0.0103
2642.00,0.0103
2641.00,0.0103
2640.00,0.0103
2639.00,0.0102
2638.00,0.0102
2637.00,0.0102
2636.00,0.0103
2635.00,0.0103
2634.00,0.0102
2633.00,0.0102
2632.00,0.0102
2631.00,0.0102
2630.00,0.0102
2629.00,0.0102
2628.00,0.0102
2627.00,0.0102
2626.00,0.0102
2625.00,0.0102
2624.00,0.0102
2623.00,0.0102
2622.00,0.0101
2621.00,0.0101
2620.00,0.0101
2619.00,0.0101
2618.00,0.0101
2617.00,0.0102
2616.00,0.0102
2615.00,0.0102
2614.00,0.0102
2613.00,0.0102
2612.00,0.0102
2611.00,0.0101
2610.00,0.0101
2609.00,0.0101
2608.00,0.0101
2607.00,0.0101
2606.00,0.0101
2605.00,0.0101
2604.00,0.0101
2603.00,0.0101
2602.00,0.0101
2601.00,0.0101
2600.00,0.0101
2599.00,0.0101
2598.00,0.0101
2597.00,0.0101
2596.00,0.0101
2595.00,0.0101
2594.00,0.0101
2593.00,0.0101
2592.00,0.0101
2591.00,0.0101
2590.00,0.0101
2589.00,0.0101
2588.00,0.0100
2587.00,0.0100
2586.00,0.0099
2585.00,0.0099
2584.00,0.0100
2583.00,0.0100
2582.00,0.0100
2581.00,0.0100
2580.00,0.0099
2579.00,0.0099
2578.00,0.0100
2577.00,0.0100
2576.00,0.0101
2575.00,0.0101
2574.00,0.0100
2573.00,0.0100
2572.00,0.0100
2571.00,0.0100
2570.00,0.0099
2569.00,0.0099
2568.00,0.0099
2567.00,0.0099
2566.00,0.0100
2565.00,0.0100
2564.00,0.0101
2563.00,0.0101
2562.00,0.0101
2561.00,0.0100
2560.00,0.0100
2559.00,0.0099
2558.00,0.0099
2557.00,0.0099
2556.00,0.0099
2555.00,0.0100
2554.00,0.0100
2553.00,0.0100
2552.00,0.0100
2551.00,0.0100
2550.00,0.0100
2549.00,0.0100
2548.00,0.0100
2547.00,0.0100
2546.00,0.0099
2545.00,0.0099
2544.00,0.0099
2543.00,0.0099
2542.00,0.0100
2541.00,0.0101
2540.00,0.0101
2539.00,0.0101
2538.00,0.0100
2537.00,0.0099
2536.00,0.0099
2535.00,0.0099
2534.00,0.0100
2533.00,0.0100
2532.00,0.0100
2531.00,0.0100
2530.00,0.0100
2529.00,0.0101
2528.00,0.0101
2527.00,0.0101
2526.00,0.0101
2525.00,0.0100
2524.00,0.0100
2523.00,0.0100
2522.00,0.0099
2521.00,0.0099
2520.00,0.0099
2519.00,0.0099
2518.00,0.0099
2517.00,0.0098
2516.00,0.0098
2515.00,0.0098
2514.00,0.0099
2513.00,0.0100
2512.00,0.0100
2511.00,0.0100
2510.00,0.0100
2509.00,0.0099
2508.00,0.0099
2507.00,0.0099
2506.00,0.0098
2505.00,0.0098
2504.00,0.0098
2503.00,0.0099
2502.00,0.0099
2501.00,0.0100
2500.00,0.0100
2499.00,0.0099
2498.00,0.0099
2497.00,0.0098
2496.00,0.0098
2495.00,0.0098
2494.00,0.0098
2493.00,0.0099
2492.00,0.0099
2491.00,0.0099
2490.00,0.0099
2489.00,0.0099
2488.00,0.0099
2487.00,0.0099
2486.00,0.0099
2485.00,0.0098
2484.00,0.0098
2483.00,0.0099
2482.00,0.0099
2481.00,0.0099
2480.00,0.0099
2479.00,0.0099
2478.00,0.0099
2477.00,0.0098
2476.00,0.0098
2475.00,0.0098
2474.00,0.0099
2473.00,0.0099
2472.00,0.0099
2471.00,0.0099
2470.00,0.0099
2469.00,0.0098
2468.00,0.0098
2467.00,0.0099
2466.00,0.0099
2465.00,0.0099
2464.00,0.0098
2463.00,0.0098
2462.00,0.0097
2461.00,0.0097
2460.00,0.0097
2459.00,0.0098
2458.00,0.0099
2457.00,0.0099
2456.00,0.0099
2455.00,0.0099
2454.00,0.0098
2453.00,0.0099
2452.00,0.0099
2451.00,0.0099
2450.00,0.0099
2449.00,0.0099
2448.00,0.0098
2447.00,0.0098
2446.00,0.0098
2445.00,0.0097
2444.00,0.0097
2443.00,0.0097
2442.00,0.0097
2441.00,0.0097
2440.00,0.0097
2439.00,0.0097
2438.00,0.0097
2437.00,0.0097
2436.00,0.0097
2435.00,0.0097
2434.00,0.0097
2433.00,0.0097
2432.00,0.0097
2431.00,0.0097
2430.00,0.0097
2429.00,0.0097
2428.00,0.0097
2427.00,0.0097
2426.00,0.0097
2425.00,0.0097
2424.00,0.0097
2423.00,0.0097
2422.00,0.0096
2421.00,0.0096
2420.00,0.0096
2419.00,0.0096
2418.00,0.0096
2417.00,0.0096
2416.00,0.0096
2415.00,0.0096
2414.00,0.0096
2413.00,0.0096
2412.00,0.0097
2411.00,0.0097
2410.00,0.0096
2409.00,0.0096
2408.00,0.0095
2407.00,0.0095
2406.00,0.0095
2405.00,0.0095
2404.00,0.0096
2403.00,0.0096
2402.00,0.0096
2401.00,0.0095
2400.00,0.0095
2399.00,0.0095
2398.00,0.0095
2397.00,0.0096
2396.00,0.0096
2395.00,0.0096
2394.00,0.0096
2393.00,0.0096
2392.00,0.0096
2391.00,0.0095
2390.00,0.0095
2389.00,0.0094
2388.00,0.0094
2387.00,0.0094
2386.00,0.0093
2385.00,0.0093
2384.00,0.0093
2383.00,0.0092
2382.00,0.0091
2381.00,0.0090
2380.00,0.0089
2379.00,0.0088
2378.00,0.0086
2377.00,0.0084
2376.00,0.0082
2375.00,0.0080
2374.00,0.0077
2373.00,0.0075
2372.00,0.0074
2371.00,0.0073
2370.00,0.0072
2369.00,0.0072
2368.00,0.0073
2367.00,0.0074
2366.00,0.0074
2365.00,0.0076
2364.00,0.0076
2363.00,0.0078
2362.00,0.0077
2361.00,0.0093
2360.00,0.0097
2359.00,0.0096
2358.00,0.0097
2357.00,0.0098
2356.00,0.0100
2355.00,0.0102
2354.00,0.0104
2353.00,0.0104
2352.00,0.0103
2351.00,0.0101
2350.00,0.0098
2349.00,0.0093
2348.00,0.0088
2347.00,0.0085
2346.00,0.0084
2345.00,0.0086
2344.00,0.0089
2343.00,0.0091
2342.00,0.0093
2341.00,0.0093
2340.00,0.0094
2339.00,0.0094
2338.00,0.0093
2337.00,0.0093
2336.00,0.0093
2335.00,0.0093
2334.00,0.0093
2333.00,0.0093
2332.00,0.0093
2331.00,0.0094
2330.00,0.0095
2329.00,0.0097
2328.00,0.0098
2327.00,0.0100
2326.00,0.0093
2325.00,0.0093
2324.00,0.0094
2323.00,0.0091
2322.00,0.0090
2321.00,0.0088
2320.00,0.0087
2319.00,0.0086
2318.00,0.0087
2317.00,0.0088
2316.00,0.0089
2315.00,0.0090
2314.00,0.0089
2313.00,0.0088
2312.00,0.0087
2311.00,0.0086
2310.00,0.0085
2309.00,0.0085
2308.00,0.0085
2307.00,0.0086
2306.00,0.0088
2305.00,0.0089
2304.00,0.0090
2303.00,0.0090
2302.00,0.0090
2301.00,0.0091
2300.00,0.0090
2299.00,0.0090
2298.00,0.0090
2297.00,0.0090
2296.00,0.0090
2295.00,0.0089
2294.00,0.0090
2293.00,0.0090
2292.00,0.0091
2291.00,0.0092
2290.00,0.0092
2289.00,0.0093
2288.00,0.0093
2287.00,0.0094
2286.00,0.0094
2285.00,0.0095
2284.00,0.0095
2283.00,0.0095
2282.00,0.0095
2281.00,0.0095
2280.00,0.0095
2279.00,0.0095
2278.00,0.0094
2277.00,0.0093
2276.00,0.0092
2275.00,0.0093
2274.00,0.0094
2273.00,0.0095
2272.00,0.0095
2271.00,0.0094
2270.00,0.0093
2269.00,0.0092
2268.00,0.0092
2267.00,0.0093
2266.00,0.0094
2265.00,0.0094
2264.00,0.0093
2263.00,0.0092
2262.00,0.0092
2261.00,0.0092
2260.00,0.0093
2259.00,0.0094
2258.00,0.0094
2257.00,0.0095
2256.00,0.0094
2255.00,0.0093
2254.00,0.0092
2253.00,0.0092
2252.00,0.0093
2251.00,0.0093
2250.00,0.0093
2249.00,0.0093
2248.00,0.0093
2247.00,0.0092
2246.00,0.0091
2245.00,0.0090
2244.00,0.0090
2243.00,0.0090
2242.00,0.0090
2241.00,0.0091
2240.00,0.0091
2239.00,0.0090
2238.00,0.0089
2237.00,0.0089
2236.00,0.0089
2235.00,0.0090
2234.00,0.0092
2233.00,0.0092
2232.00,0.0093
2231.00,0.0093
2230.00,0.0092
2229.00,0.0092
2228.00,0.0092
2227.00,0.0092
2226.00,0.0092
2225.00,0.0091
2224.00,0.0090
2223.00,0.0089
2222.00,0.0088
2221.00,0.0089
2220.00,0.0090
2219.00,0.0091
2218.00,0.0092
2217.00,0.0092
2216.00,0.0093
2215.00,0.0093
2214.00,0.0094
2213.00,0.0094
2212.00,0.0094
2211.00,0.0093
2210.00,0.0092
2209.00,0.0091
2208.00,0.0091
2207.00,0.0091
2206.00,0.0091
2205.00,0.0092
2204.00,0.0092
2203.00,0.0092
2202.00,0.0092
2201.00,0.0091
2200.00,0.0091
2199.00,0.0092
2198.00,0.0092
2197.00,0.0091
2196.00,0.0092
2195.00,0.0092
2194.00,0.0093
2193.00,0.0092
2192.00,0.0091
2191.00,0.0090
2190.00,0.0090
2189.00,0.0090
2188.00,0.0090
2187.00,0.0089
2186.00,0.0089
2185.00,0.0089
2184.00,0.0090
2183.00,0.0091
2182.00,0.0092
2181.00,0.0093
2180.00,0.0093
2179.00,0.0093
2178.00,0.0092
2177.00,0.0091
2176.00,0.0089
2175.00,0.0089
2174.00,0.0090
2173.00,0.0091
2172.00,0.0092
2171.00,0.0091
2170.00,0.0090
2169.00,0.0089
2168.00,0.0089
2167.00,0.0090
2166.00,0.0093
2165.00,0.0095
2164.00,0.0097
2163.00,0.0098
2162.00,0.0096
2161.00,0.0092
2160.00,0.0087
2159.00,0.0083
2158.00,0.0081
2157.00,0.0082
2156.00,0.0083
2155.00,0.0083
2154.00,0.0084
2153.00,0.0084
2152.00,0.0083
2151.00,0.0083
2150.00,0.0083
2149.00,0.0083
2148.00,0.0083
2147.00,0.0081
2146.00,0.0080
2145.00,0.0079
2144.00,0.0080
2143.00,0.0081
2142.00,0.0082
2141.00,0.0082
2140.00,0.0082
2139.00,0.0081
2138.00,0.0081
2137.00,0.0080
2136.00,0.0080
2135.00,0.0079
2134.00,0.0078
2133.00,0.0078
2132.00,0.0078
2131.00,0.0078
2130.00,0.0078
2129.00,0.0079
2128.00,0.0079
2127.00,0.0078
2126.00,0.0078
2125.00,0.0079
2124.00,0.0080
2123.00,0.0081
2122.00,0.0082
2121.00,0.0082
2120.00,0.0083
2119.00,0.0083
2118.00,0.0083
2117.00,0.0083
2116.00,0.0083
2115.00,0.0083
2114.00,0.0082
2113.00,0.0082
2112.00,0.0081
2111.00,0.0081
2110.00,0.0082
2109.00,0.0082
2108.00,0.0082
2107.00,0.0082
2106.00,0.0081
2105.00,0.0081
2104.00,0.0081
2103.00,0.0081
2102.00,0.0082
2101.00,0.0082
2100.00,0.0082
2099.00,0.0082
2098.00,0.0083
2097.00,0.0083
2096.00,0.0082
2095.00,0.0081
2094.00,0.0080
2093.00,0.0081
2092.00,0.0082
2091.00,0.0083
2090.00,0.0083
2089.00,0.0083
2088.00,0.0083
2087.00,0.0082
2086.00,0.0082
2085.00,0.0082
2084.00,0.0083
2083.00,0.0082
2082.00,0.0082
2081.00,0.0081
2080.00,0.0080
2079.00,0.0080
2078.00,0.0080
2077.00,0.0081
2076.00,0.0082
2075.00,0.0082
2074.00,0.0082
2073.00,0.0081
2072.00,0.0080
2071.00,0.0080
2070.00,0.0080
2069.00,0.0080
2068.00,0.0081
2067.00,0.0082
2066.00,0.0083
2065.00,0.0083
2064.00,0.0082
2063.00,0.0081
2062.00,0.0081
2061.00,0.0081
2060.00,0.0081
2059.00,0.0081
2058.00,0.0080
2057.00,0.0079
2056.00,0.0078
2055.00,0.0078
2054.00,0.0079
2053.00,0.0080
2052.00,0.0081
2051.00,0.0082
2050.00,0.0083
2049.00,0.0084
2048.00,0.0084
2047.00,0.0084
2046.00,0.0084
2045.00,0.0083
2044.00,0.0081
2043.00,0.0080
2042.00,0.0080
2041.00,0.0082
2040.00,0.0083
2039.00,0.0085
2038.00,0.0085
2037.00,0.0085
2036.00,0.0084
2035.00,0.0082
2034.00,0.0080
2033.00,0.0079
2032.00,0.0079
2031.00,0.0080
2030.00,0.0082
2029.00,0.0083
2028.00,0.0083
2027.00,0.0081
2026.00,0.0079
2025.00,0.0077
2024.00,0.0076
2023.00,0.0076
2022.00,0.0078
2021.00,0.0080
2020.00,0.0081
2019.00,0.0081
2018.00,0.0080
2017.00,0.0080
2016.00,0.0080
2015.00,0.0081
2014.00,0.0082
2013.00,0.0082
2012.00,0.0080
2011.00,0.0078
2010.00,0.0076
2009.00,0.0076
2008.00,0.0076
2007.00,0.0075
2006.00,0.0074
2005.00,0.0074
2004.00,0.0074
2003.00,0.0075
2002.00,0.0076
2001.00,0.0078
2000.00,0.0078
1999.00,0.0079
1998.00,0.0080
1997.00,0.0080
1996.00,0.0081
1995.00,0.0082
1994.00,0.0082
1993.00,0.0083
1992.00,0.0082
1991.00,0.0080
1990.00,0.0078
1989.00,0.0077
1988.00,0.0077
1987.00,0.0077
1986.00,0.0077
1985.00,0.0078
1984.00,0.0079
1983.00,0.0080
1982.00,0.0082
1981.00,0.0083
1980.00,0.0082
1979.00,0.0081
1978.00,0.0080
1977.00,0.0081
1976.00,0.0081
1975.00,0.0081
1974.00,0.0081
1973.00,0.0081
1972.00,0.0080
1971.00,0.0080
1970.00,0.0080
1969.00,0.0081
1968.00,0.0081
1967.00,0.0080
1966.00,0.0078
1965.00,0.0077
1964.00,0.0077
1963.00,0.0078
1962.00,0.0078
1961.00,0.0078
1960.00,0.0078
1959.00,0.0077
1958.00,0.0077
1957.00,0.0075
1956.00,0.0072
1955.00,0.0070
1954.00,0.0068
1953.00,0.0069
1952.00,0.0070
1951.00,0.0070
1950.00,0.0070
1949.00,0.0070
1948.00,0.0070
1947.00,0.0070
1946.00,0.0071
1945.00,0.0072
1944.00,0.0072
1943.00,0.0071
1942.00,0.0070
1941.00,0.0070
1940.00,0.0071
1939.00,0.0072
1938.00,0.0072
1937.00,0.0072
1936.00,0.0072
1935.00,0.0072
1934.00,0.0071
1933.00,0.0071
1932.00,0.0070
1931.00,0.0070
1930.00,0.0070
1929.00,0.0071
1928.00,0.0071
1927.00,0.0071
1926.00,0.0071
1925.00,0.0072
1924.00,0.0073
1923.00,0.0072
1922.00,0.0071
1921.00,0.0071
1920.00,0.0072
1919.00,0.0072
1918.00,0.0072
1917.00,0.0070
1916.00,0.0069
1915.00,0.0068
1914.00,0.0068
1913.00,0.0068
1912.00,0.0068
1911.00,0.0068
1910.00,0.0068
1909.00,0.0068
1908.00,0.0068
1907.00,0.0068
1906.00,0.0069
1905.00,0.0069
1904.00,0.0070
1903.00,0.0069
1902.00,0.0069
1901.00,0.0068
1900.00,0.0067
1899.00,0.0067
1898.00,0.0066
1897.00,0.0067
1896.00,0.0067
1895.00,0.0066
1894.00,0.0066
1893.00,0.0066
1892.00,0.0066
1891.00,0.0065
1890.00,0.0065
1889.00,0.0064
1888.00,0.0064
1887.00,0.0065
1886.00,0.0065
1885.00,0.0066
1884.00,0.0066
1883.00,0.0066
1882.00,0.0066
1881.00,0.0066
1880.00,0.0065
1879.00,0.0065
1878.00,0.0064
1877.00,0.0064
1876.00,0.0064
1875.00,0.0064
1874.00,0.0064
1873.00,0.0065
1872.00,0.0065
1871.00,0.0065
1870.00,0.0064
1869.00,0.0062
1868.00,0.0061
1867.00,0.0061
1866.00,0.0062
1865.00,0.0063
1864.00,0.0064
1863.00,0.0063
1862.00,0.0063
1861.00,0.0062
1860.00,0.0062
1859.00,0.0061
1858.00,0.0061
1857.00,0.0061
1856.00,0.0062
1855.00,0.0062
1854.00,0.0062
1853.00,0.0061
1852.00,0.0060
1851.00,0.0060
1850.00,0.0060
1849.00,0.0060
1848.00,0.0059
1847.00,0.0059
1846.00,0.0060
1845.00,0.0060
1844.00,0.0059
1843.00,0.0058
1842.00,0.0058
1841.00,0.0059
1840.00,0.0059
1839.00,0.0059
1838.00,0.0058
1837.00,0.0058
1836.00,0.0057
1835.00,0.0057
1834.00,0.0057
1833.00,0.0058
1832.00,0.0058
1831.00,0.0057
1830.00,0.0056
1829.00,0.0055
1828.00,0.0055
1827.00,0.0056
1826.00,0.0057
1825.00,0.0056
1824.00,0.0055
1823.00,0.0055
1822.00,0.0055
1821.00,0.0055
1820.00,0.0055
1819.00,0.0054
1818.00,0.0053
1817.00,0.0053
1816.00,0.0053
1815.00,0.0053
1814.00,0.0053
1813.00,0.0053
1812.00,0.0052
1811.00,0.0051
1810.00,0.0051
1809.00,0.0050
1808.00,0.0051
1807.00,0.0051
1806.00,0.0052
1805.00,0.0053
1804.00,0.0054
1803.00,0.0054
1802.00,0.0053
1801.00,0.0053
1800.00,0.0052
1799.00,0.0052
1798.00,0.0052
1797.00,0.0052
1796.00,0.0053
1795.00,0.0054
1794.00,0.0054
1793.00,0.0054
1792.00,0.0053
1791.00,0.0052
1790.00,0.0052
1789.00,0.0054
1788.00,0.0055
1787.00,0.0055
1786.00,0.0055
1785.00,0.0055
1784.00,0.0054
1783.00,0.0055
1782.00,0.0055
1781.00,0.0055
1780.00,0.0056
1779.00,0.0056
1778.00,0.0057
1777.00,0.0058
1776.00,0.0059
1775.00,0.0060
1774.00,0.0062
1773.00,0.0061
1772.00,0.0060
1771.00,0.0058
1770.00,0.0059
1769.00,0.0061
1768.00,0.0062
1767.00,0.0062
1766.00,0.0063
1765.00,0.0064
1764.00,0.0065
1763.00,0.0066
1762.00,0.0066
1761.00,0.0065
1760.00,0.0065
1759.00,0.0066
1758.00,0.0067
1757.00,0.0067
1756.00,0.0066
1755.00,0.0067
1754.00,0.0068
1753.00,0.0068
1752.00,0.0068
1751.00,0.0067
1750.00,0.0066
1749.00,0.0066
1748.00,0.0066
1747.00,0.0068
1746.00,0.0069
1745.00,0.0070
1744.00,0.0071
1743.00,0.0072
1742.00,0.0074
1741.00,0.0075
1740.00,0.0075
1739.00,0.0075
1738.00,0.0076
1737.00,0.0080
1736.00,0.0082
1735.00,0.0084
1734.00,0.0084
1733.00,0.0082
1732.00,0.0082
1731.00,0.0084
1730.00,0.0085
1729.00,0.0086
1728.00,0.0087
1727.00,0.0089
1726.00,0.0090
1725.00,0.0091
1724.00,0.0091
1723.00,0.0092
1722.00,0.0092
1721.00,0.0093
1720.00,0.0094
1719.00,0.0094
1718.00,0.0094
1717.00,0.0094
1716.00,0.0095
1715.00,0.0096
1714.00,0.0097
1713.00,0.0098
1712.00,0.0098
1711.00,0.0098
1710.00,0.0098
1709.00,0.0099
1708.00,0.0099
1707.00,0.0099
1706.00,0.0100
1705.00,0.0100
1704.00,0.0101
1703.00,0.0104
1702.00,0.0106
1701.00,0.0106
1700.00,0.0105
1699.00,0.0103
1698.00,0.0104
1697.00,0.0107
1696.00,0.0107
1695.00,0.0104
1694.00,0.0103
1693.00,0.0104
1692.00,0.0105
1691.00,0.0105
1690.00,0.0104
1689.00,0.0103
1688.00,0.0104
1687.00,0.0105
1686.00,0.0105
1685.00,0.0104
1684.00,0.0104
1683.00,0.0103
1682.00,0.0104
1681.00,0.0106
1680.00,0.0108
1679.00,0.0109
1678.00,0.0110
1677.00,0.0112
1676.00,0.0112
1675.00,0.0112
1674.00,0.0111
1673.00,0.0112
1672.00,0.0112
1671.00,0.0112
1670.00,0.0113
1669.00,0.0114
1668.00,0.0115
1667.00,0.0116
1666.00,0.0118
1665.00,0.0119
1664.00,0.0119
1663.00,0.0120
1662.00,0.0120
1661.00,0.0121
1660.00,0.0122
1659.00,0.0122
1658.00,0.0122
1657.00,0.0123
1656.00,0.0123
1655.00,0.0123
1654.00,0.0125
1653.00,0.0129
1652.00,0.0126
1651.00,0.0125
1650.00,0.0127
1649.00,0.0127
1648.00,0.0128
1647.00,0.0131
1646.00,0.0133
1645.00,0.0134
1644.00,0.0135
1643.00,0.0136
1642.00,0.0136
1641.00,0.0136
1640.00,0.0135
1639.00,0.0135
1638.00,0.0135
1637.00,0.0136
1636.00,0.0140
1635.00,0.0141
1634.00,0.0142
1633.00,0.0143
1632.00,0.0144
1631.00,0.0145
1630.00,0.0145
1629.00,0.0146
1628.00,0.0146
1627.00,0.0146
1626.00,0.0147
1625.00,0.0149
1624.00,0.0150
1623.00,0.0151
1622.00,0.0151
1621.00,0.0152
1620.00,0.0152
1619.00,0.0153
1618.00,0.0154
1617.00,0.0155
1616.00,0.0155
1615.00,0.0155
1614.00,0.0156
1613.00,0.0157
1612.00,0.0157
1611.00,0.0157
1610.00,0.0158
1609.00,0.0159
1608.00,0.0159
1607.00,0.0160
1606.00,0.0160
1605.00,0.0160
1604.00,0.0161
1603.00,0.0162
1602.00,0.0163
1601.00,0.0163
1600.00,0.0164
1599.00,0.0165
1598.00,0.0165
1597.00,0.0165
1596.00,0.0165
1595.00,0.0165
1594.00,0.0165
1593.00,0.0165
1592.00,0.0165
1591.00,0.0166
1590.00,0.0167
1589.00,0.0167
1588.00,0.0167
1587.00,0.0167
1586.00,0.0167
1585.00,0.0167
1584.00,0.0166
1583.00,0.0166
1582.00,0.0166
1581.00,0.0166
1580.00,0.0165
1579.00,0.0165
1578.00,0.0166
1577.00,0.0167
1576.00,0.0168
1575.00,0.0168
1574.00,0.0167
1573.00,0.0167
1572.00,0.0167
1571.00,0.0166
1570.00,0.0165
1569.00,0.0165
1568.00,0.0165
1567.00,0.0165
1566.00,0.0165
1565.00,0.0164
1564.00,0.0163
1563.00,0.0164
1562.00,0.0164
1561.00,0.0161
1560.00,0.0160
1559.00,0.0165
1558.00,0.0165
1557.00,0.0164
1556.00,0.0164
1555.00,0.0164
1554.00,0.0163
1553.00,0.0161
1552.00,0.0160
1551.00,0.0159
1550.00,0.0158
1549.00,0.0157
1548.00,0.0157
1547.00,0.0156
1546.00,0.0154
1545.00,0.0152
1544.00,0.0151
1543.00,0.0150
1542.00,0.0148
1541.00,0.0148
1540.00,0.0148
1539.00,0.0147
1538.00,0.0146
1537.00,0.0146
1536.00,0.0146
1535.00,0.0145
1534.00,0.0145
1533.00,0.0146
1532.00,0.0146
1531.00,0.0145
1530.00,0.0145
1529.00,0.0144
1528.00,0.0143
1527.00,0.0142
1526.00,0.0142
1525.00,0.0141
1524.00,0.0140
1523.00,0.0139
1522.00,0.0139
1521.00,0.0140
1520.00,0.0140
1519.00,0.0140
1518.00,0.0139
1517.00,0.0138
1516.00,0.0138
1515.00,0.0137
1514.00,0.0137
1513.00,0.0137
1512.00,0.0136
1511.00,0.0134
1510.00,0.0133
1509.00,0.0131
1508.00,0.0131
1507.00,0.0133
1506.00,0.0133
1505.00,0.0131
1504.00,0.0131
1503.00,0.0131
1502.00,0.0130
1501.00,0.0128
1500.00,0.0127
1499.00,0.0127
1498.00,0.0126
1497.00,0.0127
1496.00,0.0128
1495.00,0.0128
1494.00,0.0128
1493.00,0.0128
1492.00,0.0127
1491.00,0.0125
1490.00,0.0125
1489.00,0.0126
1488.00,0.0126
1487.00,0.0126
1486.00,0.0126
1485.00,0.0126
1484.00,0.0126
1483.00,0.0126
1482.00,0.0126
1481.00,0.0126
1480.00,0.0126
1479.00,0.0126
1478.00,0.0126
1477.00,0.0125
1476.00,0.0125
1475.00,0.0125
1474.00,0.0125
1473.00,0.0126
1472.00,0.0126
1471.00,0.0126
1470.00,0.0126
1469.00,0.0126
1468.00,0.0126
1467.00,0.0126
1466.00,0.0126
1465.00,0.0126
1464.00,0.0127
1463.00,0.0126
1462.00,0.0125
1461.00,0.0125
1460.00,0.0124
1459.00,0.0123
1458.00,0.0124
1457.00,0.0126
1456.00,0.0127
1455.00,0.0127
1454.00,0.0128
1453.00,0.0129
1452.00,0.0130
1451.00,0.0130
1450.00,0.0131
1449.00,0.0132
1448.00,0.0133
1447.00,0.0133
1446.00,0.0133
1445.00,0.0133
1444.00,0.0134
1443.00,0.0134
1442.00,0.0134
1441.00,0.0134
1440.00,0.0135
1439.00,0.0136
1438.00,0.0137
1437.00,0.0138
1436.00,0.0138
1435.00,0.0138
1434.00,0.0137
1433.00,0.0136
1432.00,0.0137
1431.00,0.0137
1430.00,0.0138
1429.00,0.0138
1428.00,0.0138
1427.00,0.0138
1426.00,0.0138
1425.00,0.0138
1424.00,0.0138
1423.00,0.0139
1422.00,0.0140
1421.00,0.0140
1420.00,0.0141
1419.00,0.0142
1418.00,0.0142
1417.00,0.0142
1416.00,0.0142
1415.00,0.0142
1414.00,0.0142
1413.00,0.0143
1412.00,0.0143
1411.00,0.0144
1410.00,0.0143
1409.00,0.0143
1408.00,0.0143
1407.00,0.0143
1406.00,0.0143
1405.00,0.0144
1404.00,0.0145
1403.00,0.0146
1402.00,0.0146
1401.00,0.0146
1400.00,0.0146
1399.00,0.0146
1398.00,0.0147
1397.00,0.0147
1396.00,0.0148
1395.00,0.0149
1394.00,0.0150
1393.00,0.0149
1392.00,0.0149
1391.00,0.0149
1390.00,0.0149
1389.00,0.0149
1388.00,0.0150
1387.00,0.0151
1386.00,0.0151
1385.00,0.0151
1384.00,0.0151
1383.00,0.0151
1382.00,0.0151
1381.00,0.0151
1380.00,0.0151
1379.00,0.0151
1378.00,0.0150
1377.00,0.0150
1376.00,0.0150
1375.00,0.0150
1374.00,0.0151
1373.00,0.0151
1372.00,0.0152
1371.00,0.0151
1370.00,0.0151
1369.00,0.0151
1368.00,0.0152
1367.00,0.0152
1366.00,0.0151
1365.00,0.0151
1364.00,0.0151
1363.00,0.0151
1362.00,0.0151
1361.00,0.0152
1360.00,0.0152
1359.00,0.0153
1358.00,0.0152
1357.00,0.0152
1356.00,0.0152
1355.00,0.0152
1354.00,0.0152
1353.00,0.0152
1352.00,0.0152
1351.00,0.0151
1350.00,0.0151
1349.00,0.0151
1348.00,0.0151
1347.00,0.0151
1346.00,0.0151
1345.00,0.0151
1344.00,0.0151
1343.00,0.0150
1342.00,0.0150
1341.00,0.0149
1340.00,0.0149
1339.00,0.0150
1338.00,0.0151
1337.00,0.0151
1336.00,0.0151
1335.00,0.0151
1334.00,0.0151
1333.00,0.0151
1332.00,0.0151
1331.00,0.0151
1330.00,0.0151
1329.00,0.0151
1328.00,0.0150
1327.00,0.0150
1326.00,0.0150
1325.00,0.0150
1324.00,0.0149
1323.00,0.0149
1322.00,0.0149
1321.00,0.0148
1320.00,0.0148
1319.00,0.0148
1318.00,0.0149
1317.00,0.0149
1316.00,0.0150
1315.00,0.0151
1314.00,0.0151
1313.00,0.0151
1312.00,0.0150
1311.00,0.0150
1310.00,0.0150
1309.00,0.0150
1308.00,0.0150
1307.00,0.0150
1306.00,0.0150
1305.00,0.0150
1304.00,0.0151
1303.00,0.0151
1302.00,0.0151
1301.00,0.0151
1300.00,0.0151
1299.00,0.0152
1298.00,0.0152
1297.00,0.0151
1296.00,0.0152
1295.00,0.0152
1294.00,0.0153
1293.00,0.0153
1292.00,0.0153
1291.00,0.0153
1290.00,0.0154
1289.00,0.0155
1288.00,0.0155
1287.00,0.0156
1286.00,0.0156
1285.00,0.0156
1284.00,0.0156
1283.00,0.0156
1282.00,0.0157
1281.00,0.0157
1280.00,0.0157
1279.00,0.0158
1278.00,0.0159
1277.00,0.0160
1276.00,0.0161
1275.00,0.0161
1274.00,0.0161
1273.00,0.0161
1272.00,0.0161
1271.00,0.0161
1270.00,0.0161
1269.00,0.0161
1268.00,0.0161
1267.00,0.0162
1266.00,0.0162
1265.00,0.0161
1264.00,0.0161
1263.00,0.0160
1262.00,0.0161
1261.00,0.0162
1260.00,0.0163
1259.00,0.0164
1258.00,0.0166
1257.00,0.0167
1256.00,0.0168
1255.00,0.0170
1254.00,0.0171
1253.00,0.0172
1252.00,0.0173
1251.00,0.0174
1250.00,0.0174
1249.00,0.0174
1248.00,0.0175
1247.00,0.0175
1246.00,0.0176
1245.00,0.0177
1244.00,0.0178
1243.00,0.0179
1242.00,0.0180
1241.00,0.0180
1240.00,0.0180
1239.00,0.0181
1238.00,0.0181
1237.00,0.0182
1236.00,0.0182
1235.00,0.0183
1234.00,0.0183
1233.00,0.0183
1232.00,0.0183
1231.00,0.0184
1230.00,0.0185
1229.00,0.0185
1228.00,0.0186
1227.00,0.0187
1226.00,0.0188
1225.00,0.0189
1224.00,0.0191
1223.00,0.0191
1222.00,0.0192
1221.00,0.0193
1220.00,0.0193
1219.00,0.0194
1218.00,0.0195
1217.00,0.0197
1216.00,0.0198
1215.00,0.0199
1214.00,0.0200
1213.00,0.0201
1212.00,0.0202
1211.00,0.0204
1210.00,0.0204
1209.00,0.0205
1208.00,0.0206
1207.00,0.0207
1206.00,0.0208
1205.00,0.0209
1204.00,0.0210
1203.00,0.0211
1202.00,0.0212
1201.00,0.0212
1200.00,0.0213
1199.00,0.0214
1198.00,0.0214
1197.00,0.0215
1196.00,0.0215
1195.00,0.0216
1194.00,0.0217
1193.00,0.0218
1192.00,0.0219
1191.00,0.0220
1190.00,0.0221
1189.00,0.0222
1188.00,0.0223
1187.00,0.0224
1186.00,0.0224
1185.00,0.0225
1184.00,0.0226
1183.00,0.0227
1182.00,0.0227
1181.00,0.0228
1180.00,0.0229
1179.00,0.0231
1178.00,0.0232
1177.00,0.0234
1176.00,0.0234
1175.00,0.0235
1174.00,0.0236
1173.00,0.0237
1172.00,0.0238
1171.00,0.0240
1170.00,0.0241
1169.00,0.0243
1168.00,0.0246
1167.00,0.0248
1166.00,0.0251
1165.00,0.0253
1164.00,0.0254
1163.00,0.0253
1162.00,0.0253
1161.00,0.0252
1160.00,0.0251
1159.00,0.0250
1158.00,0.0249
1157.00,0.0248
1156.00,0.0248
1155.00,0.0248
1154.00,0.0249
1153.00,0.0250
1152.00,0.0251
1151.00,0.0251
1150.00,0.0252
1149.00,0.0253
1148.00,0.0255
1147.00,0.0258
1146.00,0.0260
1145.00,0.0262
1144.00,0.0263
1143.00,0.0263
1142.00,0.0264
1141.00,0.0264
1140.00,0.0265
1139.00,0.0266
1138.00,0.0268
1137.00,0.0270
1136.00,0.0272
1135.00,0.0274
1134.00,0.0276
1133.00,0.0278
1132.00,0.0280
1131.00,0.0282
1130.00,0.0284
1129.00,0.0286
1128.00,0.0288
1127.00,0.0290
1126.00,0.0293
1125.00,0.0296
1124.00,0.0298
1123.00,0.0300
1122.00,0.0302
1121.00,0.0304
1120.00,0.0308
1119.00,0.0311
1118.00,0.0315
1117.00,0.0318
1116.00,0.0320
1115.00,0.0322
1114.00,0.0323
1113.00,0.0323
1112.00,0.0323
1111.00,0.0324
1110.00,0.0327
1109.00,0.0329
1108.00,0.0332
1107.00,0.0335
1106.00,0.0338
1105.00,0.0341
1104.00,0.0344
1103.00,0.0348
1102.00,0.0351
1101.00,0.0353
1100.00,0.0356
1099.00,0.0359
1098.00,0.0362
1097.00,0.0364
1096.00,0.0365
1095.00,0.0367
1094.00,0.0369
1093.00,0.0371
1092.00,0.0374
1091.00,0.0376
1090.00,0.0378
1089.00,0.0380
1088.00,0.0382
1087.00,0.0384
1086.00,0.0386
1085.00,0.0386
1084.00,0.0387
1083.00,0.0388
1082.00,0.0390
1081.00,0.0390
1080.00,0.0391
1079.00,0.0392
1078.00,0.0392
1077.00,0.0394
1076.00,0.0394
1075.00,0.0394
1074.00,0.0394
1073.00,0.0394
1072.00,0.0393
1071.00,0.0393
1070.00,0.0393
1069.00,0.0393
1068.00,0.0393
1067.00,0.0393
1066.00,0.0392
1065.00,0.0392
1064.00,0.0392
1063.00,0.0392
1062.00,0.0393
1061.00,0.0393
1060.00,0.0392
1059.00,0.0392
1058.00,0.0392
1057.00,0.0392
1056.00,0.0392
1055.00,0.0392
1054.00,0.0392
1053.00,0.0393
1052.00,0.0393
1051.00,0.0393
1050.00,0.0392
1049.00,0.0392
1048.00,0.0392
1047.00,0.0392
1046.00,0.0392
1045.00,0.0392
1044.00,0.0392
1043.00,0.0391
1042.00,0.0392
1041.00,0.0392
1040.00,0.0393
1039.00,0.0394
1038.00,0.0394
1037.00,0.0394
1036.00,0.0393
1035.00,0.0393
1034.00,0.0393
1033.00,0.0393
1032.00,0.0392
1031.00,0.0390
1030.00,0.0387
1029.00,0.0384
1028.00,0.0381
1027.00,0.0378
1026.00,0.0375
1025.00,0.0372
1024.00,0.0370
1023.00,0.0368
1022.00,0.0366
1021.00,0.0364
1020.00,0.0363
1019.00,0.0361
1018.00,0.0360
1017.00,0.0359
1016.00,0.0359
1015.00,0.0359
1014.00,0.0359
1013.00,0.0360
1012.00,0.0360
1011.00,0.0361
1010.00,0.0360
1009.00,0.0360
1008.00,0.0360
1007.00,0.0361
1006.00,0.0361
1005.00,0.0360
1004.00,0.0359
1003.00,0.0358
1002.00,0.0356
1001.00,0.0354
1000.00,0.0352
999.00,0.0350
998.00,0.0347
997.00,0.0343
996.00,0.0339
995.00,0.0335
994.00,0.0332
993.00,0.0330
992.00,0.0328
991.00,0.0325
990.00,0.0321
989.00,0.0318
988.00,0.0316
987.00,0.0314
986.00,0.0313
985.00,0.0312
984.00,0.0310
983.00,0.0307
982.00,0.0305
981.00,0.0302
980.00,0.0300
979.00,0.0298
978.00,0.0296
977.00,0.0295
976.00,0.0293
975.00,0.0291
974.00,0.0290
973.00,0.0289
972.00,0.0288
971.00,0.0286
970.00,0.0285
969.00,0.0284
968.00,0.0283
967.00,0.0282
966.00,0.0281
965.00,0.0281
964.00,0.0279
963.00,0.0278
962.00,0.0275
961.00,0.0274
960.00,0.0273
959.00,0.0272
958.00,0.0271
957.00,0.0269
956.00,0.0268
955.00,0.0268
954.00,0.0268
953.00,0.0268
952.00,0.0268
951.00,0.0267
950.00,0.0266
949.00,0.0266
948.00,0.0267
947.00,0.0268
946.00,0.0269
945.00,0.0270
944.00,0.0270
943.00,0.0269
942.00,0.0269
941.00,0.0269
940.00,0.0269
939.00,0.0269
938.00,0.0268
937.00,0.0268
936.00,0.0267
935.00,0.0267
934.00,0.0265
933.00,0.0263
932.00,0.0261
931.00,0.0259
930.00,0.0259
929.00,0.0259
928.00,0.0259
927.00,0.0260
926.00,0.0261
925.00,0.0261
924.00,0.0262
923.00,0.0263
922.00,0.0264
921.00,0.0265
920.00,0.0265
919.00,0.0266
918.00,0.0267
917.00,0.0269
916.00,0.0271
915.00,0.0271
914.00,0.0271
913.00,0.0270
912.00,0.0270
911.00,0.0270
910.00,0.0269
909.00,0.0268
908.00,0.0267
907.00,0.0265
906.00,0.0263
905.00,0.0260
904.00,0.0257
903.00,0.0255
902.00,0.0253
901.00,0.0251
900.00,0.0250
899.00,0.0248
898.00,0.0246
897.00,0.0244
896.00,0.0243
895.00,0.0242
894.00,0.0242
893.00,0.0241
892.00,0.0241
891.00,0.0240
890.00,0.0239
889.00,0.0238
888.00,0.0237
887.00,0.0236
886.00,0.0236
885.00,0.0237
884.00,0.0236
883.00,0.0235
882.00,0.0234
881.00,0.0233
880.00,0.0233
879.00,0.0232
878.00,0.0231
877.00,0.0229
876.00,0.0227
875.00,0.0226
874.00,0.0225
873.00,0.0224
872.00,0.0223
871.00,0.0222
870.00,0.0220
869.00,0.0219
868.00,0.0218
867.00,0.0218
866.00,0.0216
865.00,0.0214
864.00,0.0214
863.00,0.0214
862.00,0.0216
861.00,0.0216
860.00,0.0216
859.00,0.0216
858.00,0.0215
857.00,0.0214
856.00,0.0215
855.00,0.0216
854.00,0.0216
853.00,0.0216
852.00,0.0215
851.00,0.0215
850.00,0.0214
849.00,0.0213
848.00,0.0212
847.00,0.0212
846.00,0.0212
845.00,0.0213
844.00,0.0213
843.00,0.0213
842.00,0.0213
841.00,0.0213
840.00,0.0213
839.00,0.0214
838.00,0.0217
837.00,0.0219
836.00,0.0220
835.00,0.0220
834.00,0.0219
833.00,0.0217
832.00,0.0217
831.00,0.0218
830.00,0.0220
829.00,0.0220
828.00,0.0220
827.00,0.0219
826.00,0.0218
825.00,0.0217
824.00,0.0216
823.00,0.0217
822.00,0.0217
821.00,0.0219
820.00,0.0220
819.00,0.0222
818.00,0.0222
817.00,0.0222
816.00,0.0222
815.00,0.0221
814.00,0.0222
813.00,0.0223
812.00,0.0226
811.00,0.0230
810.00,0.0236
809.00,0.0241
808.00,0.0247
807.00,0.0252
806.00,0.0258
805.00,0.0265
804.00,0.0272
803.00,0.0280
802.00,0.0288
801.00,0.0296
800.00,0.0302
799.00,0.0306
798.00,0.0307
797.00,0.0306
796.00,0.0307
795.00,0.0307
794.00,0.0306
793.00,0.0304
792.00,0.0302
791.00,0.0299
790.00,0.0296
789.00,0.0295
788.00,0.0296
787.00,0.0298
786.00,0.0301
785.00,0.0304
784.00,0.0308
783.00,0.0311
782.00,0.0313
781.00,0.0316
780.00,0.0318
779.00,0.0319
778.00,0.0318
777.00,0.0317
776.00,0.0316
775.00,0.0316
774.00,0.0314
773.00,0.0312
772.00,0.0309
771.00,0.0306
770.00,0.0301
769.00,0.0295
768.00,0.0290
767.00,0.0285
766.00,0.0281
765.00,0.0279
764.00,0.0279
763.00,0.0279
762.00,0.0279
761.00,0.0278
760.00,0.0279
759.00,0.0281
758.00,0.0282
757.00,0.0283
756.00,0.0282
755.00,0.0280
754.00,0.0278
753.00,0.0277
752.00,0.0277
751.00,0.0277
750.00,0.0277
749.00,0.0277
748.00,0.0276
747.00,0.0275
746.00,0.0274
745.00,0.0273
744.00,0.0272
743.00,0.0271
742.00,0.0270
741.00,0.0267
740.00,0.0265
739.00,0.0264
738.00,0.0263
737.00,0.0263
736.00,0.0262
735.00,0.0261
734.00,0.0260
733.00,0.0259
732.00,0.0259
731.00,0.0260
730.00,0.0261
729.00,0.0261
728.00,0.0260
727.00,0.0259
726.00,0.0259
725.00,0.0259
724.00,0.0260
723.00,0.0259
722.00,0.0258
721.00,0.0257
720.00,0.0257
719.00,0.0257
718.00,0.0258
717.00,0.0260
716.00,0.0261
715.00,0.0262
714.00,0.0263
713.00,0.0266
712.00,0.0269
711.00,0.0272
710.00,0.0273
709.00,0.0271
708.00,0.0269
707.00,0.0269
706.00,0.0273
705.00,0.0280
704.00,0.0284
703.00,0.0286
702.00,0.0284
701.00,0.0283
700.00,0.0285
699.00,0.0291
698.00,0.0298
697.00,0.0305
696.00,0.0309
695.00,0.0310
694.00,0.0307
693.00,0.0303
692.00,0.0299
691.00,0.0299
690.00,0.0299
689.00,0.0298
688.00,0.0296
687.00,0.0293
686.00,0.0290
685.00,0.0288
684.00,0.0287
683.00,0.0284
682.00,0.0283
681.00,0.0282
680.00,0.0283
679.00,0.0284
678.00,0.0287
677.00,0.0290
676.00,0.0293
675.00,0.0294
674.00,0.0293
673.00,0.0290
672.00,0.0289
671.00,0.0289
670.00,0.0285
669.00,0.0280
668.00,0.0281
667.00,0.0292
666.00,0.0304
665.00,0.0308
664.00,0.0301
663.00,0.0292
662.00,0.0287
661.00,0.0287
660.00,0.0292
659.00,0.0298
658.00,0.0300
657.00,0.0298
656.00,0.0295
655.00,0.0293
654.00,0.0290
653.00,0.0285
652.00,0.0282
651.00,0.0280
650.00,0.0279
