Created as New Dataset,
cm-1,A
4000.00,0.0229
3999.00,0.0229
3998.00,0.0229
3997.00,0.0229
3996.00,0.0229
3995.00,0.0229
3994.00,0.0229
3993.00,0.0229
3992.00,0.0229
3991.00,0.0229
3990.00,0.0228
3989.00,0.0228
3988.00,0.0228
3987.00,0.0228
3986.00,0.0228
3985.00,0.0227
3984.00,0.0227
3983.00,0.0227
3982.00,0.0228
3981.00,0.0228
3980.00,0.0228
3979.00,0.0228
3978.00,0.0228
3977.00,0.0228
3976.00,0.0228
3975.00,0.0228
3974.00,0.0228
3973.00,0.0228
3972.00,0.0228
3971.00,0.0228
3970.00,0.0227
3969.00,0.0227
3968.00,0.0226
3967.00,0.0226
3966.00,0.0226
3965.00,0.0226
3964.00,0.0226
3963.00,0.0227
3962.00,0.0227
3961.00,0.0227
3960.00,0.0227
3959.00,0.0227
3958.00,0.0227
3957.00,0.0227
3956.00,0.0227
3955.00,0.0226
3954.00,0.0226
3953.00,0.0227
3952.00,0.0227
3951.00,0.0227
3950.00,0.0228
3949.00,0.0228
3948.00,0.0228
3947.00,0.0228
3946.00,0.0228
3945.00,0.0229
3944.00,0.0228
3943.00,0.0228
3942.00,0.0227
3941.00,0.0227
3940.00,0.0226
3939.00,0.0226
3938.00,0.0225
3937.00,0.0224
3936.00,0.0225
3935.00,0.0226
3934.00,0.0227
3933.00,0.0227
3932.00,0.0227
3931.00,0.0228
3930.00,0.0228
3929.00,0.0227
3928.00,0.0228
3927.00,0.0228
3926.00,0.0227
3925.00,0.0227
3924.00,0.0227
3923.00,0.0227
3922.00,0.0228
3921.00,0.0227
3920.00,0.0227
3919.00,0.0227
3918.00,0.0227
3917.00,0.0227
3916.00,0.0226
3915.00,0.0225
3914.00,0.0224
3913.00,0.0223
3912.00,0.0222
3911.00,0.0221
3910.00,0.0221
3909.00,0.0222
3908.00,0.0224
3907.00,0.0225
3906.00,0.0227
3905.00,0.0228
3904.00,0.0230
3903.00,0.0233
3902.00,0.0235
3901.00,0.0236
3900.00,0.0234
3899.00,0.0231
3898.00,0.0228
3897.00,0.0226
3896.00,0.0226
3895.00,0.0226
3894.00,0.0226
3893.00,0.0226
3892.00,0.0225
3891.00,0.0223
3890.00,0.0223
3889.00,0.0225
3888.00,0.0227
3887.00,0.0227
3886.00,0.0225
3885.00,0.0224
3884.00,0.0227
3883.00,0.0231
3882.00,0.0233
3881.00,0.0230
3880.00,0.0226
3879.00,0.0224
3878.00,0.0225
3877.00,0.0227
3876.00,0.0226
3875.00,0.0224
3874.00,0.0223
3873.00,0.0225
3872.00,0.0228
3871.00,0.0229
3870.00,0.0226
3869.00,0.0225
3868.00,0.0227
3867.00,0.0229
3866.00,0.0229
3865.00,0.0226
3864.00,0.0225
3863.00,0.0225
3862.00,0.0226
3861.00,0.0225
3860.00,0.0223
3859.00,0.0221
3858.00,0.0221
3857.00,0.0222
3856.00,0.0224
3855.00,0.0223
3854.00,0.0221
3853.00,0.0222
3852.00,0.0224
3851.00,0.0226
3850.00,0.0226
3849.00,0.0223
3848.00,0.0220
3847.00,0.0218
3846.00,0.0217
3845.00,0.0217
3844.00,0.0217
3843.00,0.0218
3842.00,0.0221
3841.00,0.0224
3840.00,0.0225
3839.00,0.0225
3838.00,0.0224
3837.00,0.0224
3836.00,0.0224
3835.00,0.0224
3834.00,0.0224
3833.00,0.0223
3832.00,0.0221
3831.00,0.0219
3830.00,0.0219
3829.00,0.0220
3828.00,0.0219
3827.00,0.0217
3826.00,0.0216
3825.00,0.0217
3824.00,0.0220
3823.00,0.0222
3822.00,0.0221
3821.00,0.0218
3820.00,0.0219
3819.00,0.0222
3818.00,0.0224
3817.00,0.0221
3816.00,0.0216
3815.00,0.0213
3814.00,0.0214
3813.00,0.0215
3812.00,0.0214
3811.00,0.0212
3810.00,0.0211
3809.00,0.0212
3808.00,0.0211
3807.00,0.0209
3806.00,0.0210
3805.00,0.0213
3804.00,0.0218
3803.00,0.0219
3802.00,0.0216
3801.00,0.0215
3800.00,0.0216
3799.00,0.0220
3798.00,0.0220
3797.00,0.0217
3796.00,0.0214
3795.00,0.0212
3794.00,0.0212
3793.00,0.0211
3792.00,0.0210
3791.00,0.0208
3790.00,0.0208
3789.00,0.0208
3788.00,0.0208
3787.00,0.0209
3786.00,0.0209
3785.00,0.0209
3784.00,0.0209
3783.00,0.0210
3782.00,0.0211
3781.00,0.0211
3780.00,0.0210
3779.00,0.0209
3778.00,0.0208
3777.00,0.0209
3776.00,0.0208
3775.00,0.0207
3774.00,0.0206
3773.00,0.0206
3772.00,0.0207
3771.00,0.0207
3770.00,0.0207
3769.00,0.0208
3768.00,0.0211
3767.00,0.0212
3766.00,0.0211
3765.00,0.0209
3764.00,0.0208
3763.00,0.0210
3762.00,0.0211
3761.00,0.0210
3760.00,0.0209
3759.00,0.0209
3758.00,0.0209
3757.00,0.0209
3756.00,0.0210
3755.00,0.0211
3754.00,0.0211
3753.00,0.0210
3752.00,0.0209
3751.00,0.0211
3750.00,0.0213
3749.00,0.0215
3748.00,0.0217
3747.00,0.0220
3746.00,0.0220
3745.00,0.0215
3744.00,0.0209
3743.00,0.0208
3742.00,0.0210
3741.00,0.0211
3740.00,0.0210
3739.00,0.0209
3738.00,0.0209
3737.00,0.0211
3736.00,0.0213
3735.00,0.0216
3734.00,0.0217
3733.00,0.0216
3732.00,0.0212
3731.00,0.0208
3730.00,0.0207
3729.00,0.0207
3728.00,0.0208
3727.00,0.0207
3726.00,0.0207
3725.00,0.0208
3724.00,0.0210
3723.00,0.0211
3722.00,0.0210
3721.00,0.0209
3720.00,0.0209
3719.00,0.0208
3718.00,0.0207
3717.00,0.0206
3716.00,0.0206
3715.00,0.0207
3714.00,0.0208
3713.00,0.0208
3712.00,0.0210
3711.00,0.0213
3710.00,0.0216
3709.00,0.0217
3708.00,0.0216
3707.00,0.0214
3706.00,0.0213
3705.00,0.0214
3704.00,0.0215
3703.00,0.0217
3702.00,0.0218
3701.00,0.0219
3700.00,0.0221
3699.00,0.0222
3698.00,0.0223
3697.00,0.0223
3696.00,0.0223
3695.00,0.0224
3694.00,0.0226
3693.00,0.0227
3692.00,0.0228
3691.00,0.0230
3690.00,0.0231
3689.00,0.0231
3688.00,0.0229
3687.00,0.0228
3686.00,0.0227
3685.00,0.0225
3684.00,0.0223
3683.00,0.0220
3682.00,0.0219
3681.00,0.0218
3680.00,0.0217
3679.00,0.0219
3678.00,0.0222
3677.00,0.0226
3676.00,0.0227
3675.00,0.0227
3674.00,0.0229
3673.00,0.0232
3672.00,0.0234
3671.00,0.0231
3670.00,0.0229
3669.00,0.0229
3668.00,0.0230
3667.00,0.0229
3666.00,0.0228
3665.00,0.0226
3664.00,0.0224
3663.00,0.0224
3662.00,0.0224
3661.00,0.0225
3660.00,0.0226
3659.00,0.0229
3658.00,0.0232
3657.00,0.0234
3656.00,0.0237
3655.00,0.0240
3654.00,0.0245
3653.00,0.0249
3652.00,0.0249
3651.00,0.0249
3650.00,0.0252
3649.00,0.0260
3648.00,0.0265
3647.00,0.0264
3646.00,0.0261
3645.00,0.0257
3644.00,0.0254
3643.00,0.0251
3642.00,0.0248
3641.00,0.0247
3640.00,0.0247
3639.00,0.0247
3638.00,0.0248
3637.00,0.0249
3636.00,0.0251
3635.00,0.0251
3634.00,0.0250
3633.00,0.0250
3632.00,0.0254
3631.00,0.0258
3630.00,0.0261
3629.00,0.0264
3628.00,0.0268
3627.00,0.0270
3626.00,0.0272
3625.00,0.0272
3624.00,0.0272
3623.00,0.0274
3622.00,0.0278
3621.00,0.0282
3620.00,0.0285
3619.00,0.0287
3618.00,0.0287
3617.00,0.0287
3616.00,0.0285
3615.00,0.0283
3614.00,0.0280
3613.00,0.0278
3612.00,0.0278
3611.00,0.0279
3610.00,0.0279
3609.00,0.0279
3608.00,0.0279
3607.00,0.0280
3606.00,0.0279
3605.00,0.0278
3604.00,0.0277
3603.00,0.0276
3602.00,0.0276
3601.00,0.0277
3600.00,0.0278
3599.00,0.0280
3598.00,0.0281
3597.00,0.0282
3596.00,0.0283
3595.00,0.0285
3594.00,0.0286
3593.00,0.0286
3592.00,0.0286
3591.00,0.0286
3590.00,0.0287
3589.00,0.0289
3588.00,0.0292
3587.00,0.0295
3586.00,0.0297
3585.00,0.0297
3584.00,0.0295
3583.00,0.0293
3582.00,0.0291
3581.00,0.0291
3580.00,0.0291
3579.00,0.0292
3578.00,0.0293
3577.00,0.0293
3576.00,0.0294
3575.00,0.0293
3574.00,0.0293
3573.00,0.0294
3572.00,0.0294
3571.00,0.0295
3570.00,0.0297
3569.00,0.0300
3568.00,0.0304
3567.00,0.0309
3566.00,0.0313
3565.00,0.0314
3564.00,0.0312
3563.00,0.0310
3562.00,0.0308
3561.00,0.0306
3560.00,0.0306
3559.00,0.0305
3558.00,0.0305
3557.00,0.0304
3556.00,0.0304
3555.00,0.0305
3554.00,0.0306
3553.00,0.0308
3552.00,0.0309
3551.00,0.0311
3550.00,0.0312
3549.00,0.0312
3548.00,0.0313
3547.00,0.0314
3546.00,0.0316
3545.00,0.0318
3544.00,0.0318
3543.00,0.0317
3542.00,0.0316
3541.00,0.0314
3540.00,0.0314
3539.00,0.0315
3538.00,0.0316
3537.00,0.0317
3536.00,0.0318
3535.00,0.0318
3534.00,0.0319
3533.00,0.0319
3532.00,0.0318
3531.00,0.0319
3530.00,0.0320
3529.00,0.0321
3528.00,0.0323
3527.00,0.0324
3526.00,0.0326
3525.00,0.0327
3524.00,0.0327
3523.00,0.0327
3522.00,0.0327
3521.00,0.0327
3520.00,0.0327
3519.00,0.0326
3518.00,0.0326
3517.00,0.0326
3516.00,0.0326
3515.00,0.0326
3514.00,0.0326
3513.00,0.0327
3512.00,0.0328
3511.00,0.0330
3510.00,0.0332
3509.00,0.0333
3508.00,0.0334
3507.00,0.0334
3506.00,0.0334
3505.00,0.0334
3504.00,0.0335
3503.00,0.0336
3502.00,0.0337
3501.00,0.0338
3500.00,0.0338
3499.00,0.0337
3498.00,0.0337
3497.00,0.0337
3496.00,0.0338
3495.00,0.0338
3494.00,0.0338
3493.00,0.0338
3492.00,0.0338
3491.00,0.0338
3490.00,0.0338
3489.00,0.0338
3488.00,0.0339
3487.00,0.0341
3486.00,0.0342
3485.00,0.0343
3484.00,0.0343
3483.00,0.0344
3482.00,0.0345
3481.00,0.0346
3480.00,0.0347
3479.00,0.0347
3478.00,0.0347
3477.00,0.0346
3476.00,0.0346
3475.00,0.0347
3474.00,0.0347
3473.00,0.0348
3472.00,0.0349
3471.00,0.0349
3470.00,0.0350
3469.00,0.0350
3468.00,0.0350
3467.00,0.0350
3466.00,0.0351
3465.00,0.0351
3464.00,0.0352
3463.00,0.0353
3462.00,0.0353
3461.00,0.0353
3460.00,0.0353
3459.00,0.0352
3458.00,0.0353
3457.00,0.0353
3456.00,0.0354
3455.00,0.0355
3454.00,0.0356
3453.00,0.0356
3452.00,0.0356
3451.00,0.0356
3450.00,0.0356
3449.00,0.0356
3448.00,0.0357
3447.00,0.0358
3446.00,0.0359
3445.00,0.0360
3444.00,0.0360
3443.00,0.0360
3442.00,0.0360
3441.00,0.0360
3440.00,0.0360
3439.00,0.0360
3438.00,0.0360
3437.00,0.0360
3436.00,0.0361
3435.00,0.0361
3434.00,0.0362
3433.00,0.0362
3432.00,0.0363
3431.00,0.0363
3430.00,0.0363
3429.00,0.0363
3428.00,0.0363
3427.00,0.0363
3426.00,0.0364
3425.00,0.0364
3424.00,0.0365
3423.00,0.0365
3422.00,0.0366
3421.00,0.0367
3420.00,0.0367
3419.00,0.0368
3418.00,0.0368
3417.00,0.0368
3416.00,0.0367
3415.00,0.0367
3414.00,0.0368
3413.00,0.0368
3412.00,0.0369
3411.00,0.0369
3410.00,0.0369
3409.00,0.0369
3408.00,0.0369
3407.00,0.0370
3406.00,0.0370
3405.00,0.0371
3404.00,0.0371
3403.00,0.0371
3402.00,0.0371
3401.00,0.0371
3400.00,0.0371
3399.00,0.0371
3398.00,0.0371
3397.00,0.0371
3396.00,0.0372
3395.00,0.0372
3394.00,0.0373
3393.00,0.0373
3392.00,0.0374
3391.00,0.0374
3390.00,0.0374
3389.00,0.0373
3388.00,0.0373
3387.00,0.0374
3386.00,0.0375
3385.00,0.0375
3384.00,0.0376
3383.00,0.0375
3382.00,0.0375
3381.00,0.0375
3380.00,0.0375
3379.00,0.0375
3378.00,0.0375
3377.00,0.0375
3376.00,0.0375
3375.00,0.0376
3374.00,0.0376
3373.00,0.0377
3372.00,0.0377
3371.00,0.0377
3370.00,0.0376
3369.00,0.0376
3368.00,0.0376
3367.00,0.0376
3366.00,0.0377
3365.00,0.0378
3364.00,0.0378
3363.00,0.0379
3362.00,0.0379
3361.00,0.0379
3360.00,0.0379
3359.00,0.0380
3358.00,0.0380
3357.00,0.0380
3356.00,0.0381
3355.00,0.0380
3354.00,0.0380
3353.00,0.0380
3352.00,0.0379
3351.00,0.0379
3350.00,0.0379
3349.00,0.0379
3348.00,0.0379
3347.00,0.0379
3346.00,0.0379
3345.00,0.0379
3344.00,0.0380
3343.00,0.0380
3342.00,0.0381
3341.00,0.0381
3340.00,0.0381
3339.00,0.0381
3338.00,0.0381
3337.00,0.0381
3336.00,0.0381
3335.00,0.0381
3334.00,0.0382
3333.00,0.0382
3332.00,0.0382
3331.00,0.0382
3330.00,0.0381
3329.00,0.0381
3328.00,0.0381
3327.00,0.0382
3326.00,0.0382
3325.00,0.0383
3324.00,0.0383
3323.00,0.0383
3322.00,0.0383
3321.00,0.0382
3320.00,0.0382
3319.00,0.0381
3318.00,0.0381
3317.00,0.0381
3316.00,0.0381
3315.00,0.0381
3314.00,0.0381
3313.00,0.0381
3312.00,0.0382
3311.00,0.0382
3310.00,0.0383
3309.00,0.0383
3308.00,0.0383
3307.00,0.0383
3306.00,0.0383
3305.00,0.0383
3304.00,0.0383
3303.00,0.0384
3302.00,0.0383
3301.00,0.0383
3300.00,0.0383
3299.00,0.0382
3298.00,0.0383
3297.00,0.0383
3296.00,0.0383
3295.00,0.0382
3294.00,0.0382
3293.00,0.0382
3292.00,0.0382
3291.00,0.0382
3290.00,0.0382
3289.00,0.0383
3288.00,0.0383
3287.00,0.0383
3286.00,0.0383
3285.00,0.0383
3284.00,0.0383
3283.00,0.0383
3282.00,0.0383
3281.00,0.0383
3280.00,0.0383
3279.00,0.0384
3278.00,0.0384
3277.00,0.0384
3276.00,0.0384
3275.00,0.0384
3274.00,0.0385
3273.00,0.0385
3272.00,0.0385
3271.00,0.0385
3270.00,0.0385
3269.00,0.0384
3268.00,0.0384
3267.00,0.0384
3266.00,0.0384
3265.00,0.0384
3264.00,0.0384
3263.00,0.0384
3262.00,0.0385
3261.00,0.0384
3260.00,0.0384
3259.00,0.0384
3258.00,0.0385
3257.00,0.0385
3256.00,0.0385
3255.00,0.0385
3254.00,0.0384
3253.00,0.0383
3252.00,0.0383
3251.00,0.0383
3250.00,0.0384
3249.00,0.0384
3248.00,0.0385
3247.00,0.0385
3246.00,0.0386
3245.00,0.0387
3244.00,0.0387
3243.00,0.0387
3242.00,0.0386
3241.00,0.0386
3240.00,0.0386
3239.00,0.0386
3238.00,0.0386
3237.00,0.0386
3236.00,0.0386
3235.00,0.0386
3234.00,0.0386
3233.00,0.0387
3232.00,0.0387
3231.00,0.0388
3230.00,0.0388
3229.00,0.0388
3228.00,0.0388
3227.00,0.0388
3226.00,0.0387
3225.00,0.0387
3224.00,0.0386
3223.00,0.0387
3222.00,0.0387
3221.00,0.0387
3220.00,0.0387
3219.00,0.0387
3218.00,0.0386
3217.00,0.0385
3216.00,0.0385
3215.00,0.0385
3214.00,0.0386
3213.00,0.0386
3212.00,0.0386
3211.00,0.0386
3210.00,0.0386
3209.00,0.0386
3208.00,0.0386
3207.00,0.0386
3206.00,0.0386
3205.00,0.0386
3204.00,0.0386
3203.00,0.0386
3202.00,0.0386
3201.00,0.0386
3200.00,0.0386
3199.00,0.0386
3198.00,0.0386
3197.00,0.0386
3196.00,0.0386
3195.00,0.0386
3194.00,0.0385
3193.00,0.0385
3192.00,0.0385
3191.00,0.0385
3190.00,0.0385
3189.00,0.0385
3188.00,0.0385
3187.00,0.0385
3186.00,0.0385
3185.00,0.0385
3184.00,0.0385
3183.00,0.0385
3182.00,0.0385
3181.00,0.0385
3180.00,0.0384
3179.00,0.0384
3178.00,0.0384
3177.00,0.0383
3176.00,0.0383
3175.00,0.0383
3174.00,0.0383
3173.00,0.0383
3172.00,0.0383
3171.00,0.0383
3170.00,0.0383
3169.00,0.0382
3168.00,0.0382
3167.00,0.0382
3166.00,0.0382
3165.00,0.0382
3164.00,0.0382
3163.00,0.0382
3162.00,0.0382
3161.00,0.0382
3160.00,0.0382
3159.00,0.0382
3158.00,0.0382
3157.00,0.0382
3156.00,0.0381
3155.00,0.0380
3154.00,0.0380
3153.00,0.0380
3152.00,0.0380
3151.00,0.0380
3150.00,0.0380
3149.00,0.0380
3148.00,0.0380
3147.00,0.0380
3146.00,0.0380
3145.00,0.0380
3144.00,0.0380
3143.00,0.0380
3142.00,0.0380
3141.00,0.0380
3140.00,0.0380
3139.00,0.0380
3138.00,0.0380
3137.00,0.0380
3136.00,0.0379
3135.00,0.0379
3134.00,0.0378
3133.00,0.0378
3132.00,0.0378
3131.00,0.0378
3130.00,0.0378
3129.00,0.0378
3128.00,0.0378
3127.00,0.0378
3126.00,0.0378
3125.00,0.0378
3124.00,0.0378
3123.00,0.0377
3122.00,0.0377
3121.00,0.0377
3120.00,0.0376
3119.00,0.0376
3118.00,0.0376
3117.00,0.0377
3116.00,0.0377
3115.00,0.0377
3114.00,0.0377
3113.00,0.0377
3112.00,0.0377
3111.00,0.0376
3110.00,0.0376
3109.00,0.0375
3108.00,0.0375
3107.00,0.0375
3106.00,0.0375
3105.00,0.0375
3104.00,0.0375
3103.00,0.0375
3102.00,0.0375
3101.00,0.0375
3100.00,0.0375
3099.00,0.0375
3098.00,0.0375
3097.00,0.0375
3096.00,0.0375
3095.00,0.0375
3094.00,0.0375
3093.00,0.0374
3092.00,0.0374
3091.00,0.0373
3090.00,0.0373
3089.00,0.0373
3088.00,0.0373
3087.00,0.0373
3086.00,0.0373
3085.00,0.0373
3084.00,0.0373
3083.00,0.0372
3082.00,0.0372
3081.00,0.0372
3080.00,0.0372
3079.00,0.0372
3078.00,0.0372
3077.00,0.0372
3076.00,0.0372
3075.00,0.0371
3074.00,0.0371
3073.00,0.0371
3072.00,0.0371
3071.00,0.0371
3070.00,0.0372
3069.00,0.0371
3068.00,0.0371
3067.00,0.0371
3066.00,0.0371
3065.00,0.0371
3064.00,0.0371
3063.00,0.0371
3062.00,0.0371
3061.00,0.0370
3060.00,0.0370
3059.00,0.0370
3058.00,0.0370
3057.00,0.0370
3056.00,0.0370
3055.00,0.0370
3054.00,0.0370
3053.00,0.0370
3052.00,0.0369
3051.00,0.0369
3050.00,0.0368
3049.00,0.0368
3048.00,0.0368
3047.00,0.0367
3046.00,0.0367
3045.00,0.0367
3044.00,0.0367
3043.00,0.0367
3042.00,0.0367
3041.00,0.0366
3040.00,0.0366
3039.00,0.0366
3038.00,0.0366
3037.00,0.0366
3036.00,0.0366
3035.00,0.0366
3034.00,0.0366
3033.00,0.0365
3032.00,0.0365
3031.00,0.0365
3030.00,0.0365
3029.00,0.0364
3028.00,0.0364
3027.00,0.0363
3026.00,0.0363
3025.00,0.0363
3024.00,0.0363
3023.00,0.0363
3022.00,0.0363
3021.00,0.0363
3020.00,0.0362
3019.00,0.0362
3018.00,0.0362
3017.00,0.0362
3016.00,0.0361
3015.00,0.0362
3014.00,0.0362
3013.00,0.0363
3012.00,0.0363
3011.00,0.0363
3010.00,0.0363
3009.00,0.0364
3008.00,0.0364
3007.00,0.0364
3006.00,0.0364
3005.00,0.0364
3004.00,0.0365
3003.00,0.0365
3002.00,0.0365
3001.00,0.0365
3000.00,0.0365
2999.00,0.0365
2998.00,0.0365
2997.00,0.0365
2996.00,0.0366
2995.00,0.0366
2994.00,0.0366
2993.00,0.0366
2992.00,0.0366
2991.00,0.0365
2990.00,0.0365
2989.00,0.0365
2988.00,0.0365
2987.00,0.0366
2986.00,0.0366
2985.00,0.0367
2984.00,0.0369
2983.00,0.0369
2982.00,0.0370
2981.00,0.0370
2980.00,0.0369
2979.00,0.0368
2978.00,0.0367
2977.00,0.0366
2976.00,0.0366
2975.00,0.0365
2974.00,0.0365
2973.00,0.0365
2972.00,0.0364
2971.00,0.0363
2970.00,0.0362
2969.00,0.0361
2968.00,0.0360
2967.00,0.0359
2966.00,0.0358
2965.00,0.0358
2964.00,0.0357
2963.00,0.0356
2962.00,0.0356
2961.00,0.0355
2960.00,0.0355
2959.00,0.0354
2958.00,0.0354
2957.00,0.0354
2956.00,0.0354
2955.00,0.0353
2954.00,0.0353
2953.00,0.0353
2952.00,0.0353
2951.00,0.0353
2950.00,0.0353
2949.00,0.0352
2948.00,0.0352
2947.00,0.0352
2946.00,0.0351
2945.00,0.0351
2944.00,0.0350
2943.00,0.0350
2942.00,0.0350
2941.00,0.0349
2940.00,0.0349
2939.00,0.0349
2938.00,0.0349
2937.00,0.0348
2936.00,0.0348
2935.00,0.0348
2934.00,0.0347
2933.00,0.0347
2932.00,0.0346
2931.00,0.0346
2930.00,0.0346
2929.00,0.0345
2928.00,0.0345
2927.00,0.0344
2926.00,0.0343
2925.00,0.0342
2924.00,0.0342
2923.00,0.0342
2922.00,0.0342
2921.00,0.0342
2920.00,0.0342
2919.00,0.0341
2918.00,0.0339
2917.00,0.0339
2916.00,0.0339
2915.00,0.0340
2914.00,0.0341
2913.00,0.0342
2912.00,0.0343
2911.00,0.0343
2910.00,0.0343
2909.00,0.0344
2908.00,0.0344
2907.00,0.0344
2906.00,0.0344
2905.00,0.0344
2904.00,0.0343
2903.00,0.0343
2902.00,0.0343
2901.00,0.0343
2900.00,0.0343
2899.00,0.0344
2898.00,0.0343
2897.00,0.0342
2896.00,0.0342
2895.00,0.0341
2894.00,0.0342
2893.00,0.0342
2892.00,0.0342
2891.00,0.0342
2890.00,0.0342
2889.00,0.0342
2888.00,0.0342
2887.00,0.0342
2886.00,0.0342
2885.00,0.0342
2884.00,0.0342
2883.00,0.0342
2882.00,0.0341
2881.00,0.0341
2880.00,0.0340
2879.00,0.0339
2878.00,0.0338
2877.00,0.0338
2876.00,0.0337
2875.00,0.0336
2874.00,0.0335
2873.00,0.0335
2872.00,0.0334
2871.00,0.0334
2870.00,0.0333
2869.00,0.0333
2868.00,0.0333
2867.00,0.0333
2866.00,0.0332
2865.00,0.0332
2864.00,0.0332
2863.00,0.0332
2862.00,0.0332
2861.00,0.0332
2860.00,0.0331
2859.00,0.0331
2858.00,0.0330
2857.00,0.0330
2856.00,0.0330
2855.00,0.0329
2854.00,0.0329
2853.00,0.0329
2852.00,0.0329
2851.00,0.0328
2850.00,0.0327
2849.00,0.0327
2848.00,0.0327
2847.00,0.0326
2846.00,0.0326
2845.00,0.0326
2844.00,0.0326
2843.00,0.0326
2842.00,0.0326
2841.00,0.0326
2840.00,0.0326
2839.00,0.0326
2838.00,0.0326
2837.00,0.0326
2836.00,0.0326
2835.00,0.0325
2834.00,0.0325
2833.00,0.0324
2832.00,0.0324
2831.00,0.0325
2830.00,0.0324
2829.00,0.0324
2828.00,0.0324
2827.00,0.0324
2826.00,0.0323
2825.00,0.0323
2824.00,0.0322
2823.00,0.0322
2822.00,0.0322
2821.00,0.0322
2820.00,0.0322
2819.00,0.0322
2818.00,0.0322
2817.00,0.0321
2816.00,0.0321
2815.00,0.0320
2814.00,0.0320
2813.00,0.0320
2812.00,0.0320
2811.00,0.0319
2810.00,0.0319
2809.00,0.0319
2808.00,0.0319
2807.00,0.0318
2806.00,0.0318
2805.00,0.0318
2804.00,0.0318
2803.00,0.0317
2802.00,0.0317
2801.00,0.0317
2800.00,0.0317
2799.00,0.0316
2798.00,0.0316
2797.00,0.0316
2796.00,0.0315
2795.00,0.0315
2794.00,0.0315
2793.00,0.0314
2792.00,0.0314
2791.00,0.0314
2790.00,0.0314
2789.00,0.0314
2788.00,0.0314
2787.00,0.0313
2786.00,0.0313
2785.00,0.0312
2784.00,0.0312
2783.00,0.0312
2782.00,0.0312
2781.00,0.0312
2780.00,0.0311
2779.00,0.0311
2778.00,0.0310
2777.00,0.0311
2776.00,0.0311
2775.00,0.0311
2774.00,0.0311
2773.00,0.0310
2772.00,0.0309
2771.00,0.0309
2770.00,0.0309
2769.00,0.0309
2768.00,0.0309
2767.00,0.0308
2766.00,0.0308
2765.00,0.0308
2764.00,0.0307
2763.00,0.0307
2762.00,0.0307
2761.00,0.0307
2760.00,0.0306
2759.00,0.0306
2758.00,0.0306
2757.00,0.0306
2756.00,0.0306
2755.00,0.0305
2754.00,0.0305
2753.00,0.0305
2752.00,0.0305
2751.00,0.0305
2750.00,0.0305
2749.00,0.0305
2748.00,0.0305
2747.00,0.0305
2746.00,0.0304
2745.00,0.0303
2744.00,0.0303
2743.00,0.0302
2742.00,0.0302
2741.00,0.0302
2740.00,0.0302
2739.00,0.0302
2738.00,0.0301
2737.00,0.0301
2736.00,0.0301
2735.00,0.0300
2734.00,0.0300
2733.00,0.0300
2732.00,0.0299
2731.00,0.0299
2730.00,0.0299
2729.00,0.0299
2728.00,0.0299
2727.00,0.0299
2726.00,0.0299
2725.00,0.0298
2724.00,0.0298
2723.00,0.0298
2722.00,0.0298
2721.00,0.0297
2720.00,0.0297
2719.00,0.0297
2718.00,0.0297
2717.00,0.0296
2716.00,0.0296
2715.00,0.0296
2714.00,0.0296
2713.00,0.0296
2712.00,0.0296
2711.00,0.0296
2710.00,0.0295
2709.00,0.0295
2708.00,0.0295
2707.00,0.0295
2706.00,0.0294
2705.00,0.0294
2704.00,0.0294
2703.00,0.0293
2702.00,0.0293
2701.00,0.0293
2700.00,0.0293
2699.00,0.0292
2698.00,0.0292
2697.00,0.0292
2696.00,0.0292
2695.00,0.0292
2694.00,0.0292
2693.00,0.0291
2692.00,0.0291
2691.00,0.0291
2690.00,0.0291
2689.00,0.0291
2688.00,0.0291
2687.00,0.0290
2686.00,0.0290
2685.00,0.0290
2684.00,0.0290
2683.00,0.0289
2682.00,0.0289
2681.00,0.0289
2680.00,0.0289
2679.00,0.0289
2678.00,0.0289
2677.00,0.0289
2676.00,0.0288
2675.00,0.0288
2674.00,0.0288
2673.00,0.0288
2672.00,0.0287
2671.00,0.0287
2670.00,0.0287
2669.00,0.0287
2668.00,0.0287
2667.00,0.0287
2666.00,0.0287
2665.00,0.0287
2664.00,0.0287
2663.00,0.0287
2662.00,0.0287
2661.00,0.0287
2660.00,0.0287
2659.00,0.0287
2658.00,0.0287
2657.00,0.0287
2656.00,0.0287
2655.00,0.0287
2654.00,0.0286
2653.00,0.0286
2652.00,0.0286
2651.00,0.0286
2650.00,0.0286
2649.00,0.0286
2648.00,0.0287
2647.00,0.0287
2646.00,0.0287
2645.00,0.0287
2644.00,0.0287
2643.00,0.0287
2642.00,0.0287
2641.00,0.0287
2640.00,0.0287
2639.00,0.0286
2638.00,0.0286
2637.00,0.0286
2636.00,0.0286
2635.00,0.0286
2634.00,0.0286
2633.00,0.0286
2632.00,0.0285
2631.00,0.0285
2630.00,0.0285
2629.00,0.0285
2628.00,0.0285
2627.00,0.0285
2626.00,0.0285
2625.00,0.0285
2624.00,0.0285
2623.00,0.0285
2622.00,0.0285
2621.00,0.0284
2620.00,0.0284
2619.00,0.0284
2618.00,0.0285
2617.00,0.0285
2616.00,0.0285
2615.00,0.0285
2614.00,0.0285
2613.00,0.0285
2612.00,0.0284
2611.00,0.0284
2610.00,0.0283
2609.00,0.0283
2608.00,0.0283
2607.00,0.0284
2606.00,0.0284
2605.00,0.0284
2604.00,0.0284
2603.00,0.0283
2602.00,0.0283
2601.00,0.0283
2600.00,0.0283
2599.00,0.0283
2598.00,0.0283
2597.00,0.0282
2596.00,0.0282
2595.00,0.0281
2594.00,0.0282
2593.00,0.0282
2592.00,0.0283
2591.00,0.0283
2590.00,0.0283
2589.00,0.0282
2588.00,0.0281
2587.00,0.0281
2586.00,0.0280
2585.00,0.0280
2584.00,0.0281
2583.00,0.0281
2582.00,0.0281
2581.00,0.0281
2580.00,0.0281
2579.00,0.0281
2578.00,0.0281
2577.00,0.0282
2576.00,0.0282
2575.00,0.0281
2574.00,0.0281
2573.00,0.0281
2572.00,0.0281
2571.00,0.0281
2570.00,0.0280
2569.00,0.0280
2568.00,0.0280
2567.00,0.0280
2566.00,0.0280
2565.00,0.0281
2564.00,0.0281
2563.00,0.0281
2562.00,0.0280
2561.00,0.0280
2560.00,0.0280
2559.00,0.0280
2558.00,0.0280
2557.00,0.0280
2556.00,0.0280
2555.00,0.0281
2554.00,0.0280
2553.00,0.0280
2552.00,0.0280
2551.00,0.0280
2550.00,0.0279
2549.00,0.0279
2548.00,0.0279
2547.00,0.0278
2546.00,0.0278
2545.00,0.0277
2544.00,0.0277
2543.00,0.0278
2542.00,0.0279
2541.00,0.0279
2540.00,0.0280
2539.00,0.0280
2538.00,0.0280
2537.00,0.0279
2536.00,0.0279
2535.00,0.0279
2534.00,0.0279
2533.00,0.0278
2532.00,0.0278
2531.00,0.0278
2530.00,0.0279
2529.00,0.0279
2528.00,0.0280
2527.00,0.0280
2526.00,0.0280
2525.00,0.0280
2524.00,0.0280
2523.00,0.0280
2522.00,0.0280
2521.00,0.0280
2520.00,0.0279
2519.00,0.0278
2518.00,0.0277
2517.00,0.0276
2516.00,0.0275
2515.00,0.0275
2514.00,0.0276
2513.00,0.0276
2512.00,0.0277
2511.00,0.0277
2510.00,0.0276
2509.00,0.0276
2508.00,0.0276
2507.00,0.0275
2506.00,0.0275
2505.00,0.0275
2504.00,0.0275
2503.00,0.0275
2502.00,0.0276
2501.00,0.0276
2500.00,0.0276
2499.00,0.0276
2498.00,0.0275
2497.00,0.0275
2496.00,0.0274
2495.00,0.0274
2494.00,0.0273
2493.00,0.0273
2492.00,0.0273
2491.00,0.0274
2490.00,0.0274
2489.00,0.0274
2488.00,0.0274
2487.00,0.0274
2486.00,0.0274
2485.00,0.0273
2484.00,0.0273
2483.00,0.0273
2482.00,0.0274
2481.00,0.0274
2480.00,0.0274
2479.00,0.0274
2478.00,0.0274
2477.00,0.0273
2476.00,0.0273
2475.00,0.0272
2474.00,0.0272
2473.00,0.0272
2472.00,0.0272
2471.00,0.0272
2470.00,0.0272
2469.00,0.0272
2468.00,0.0271
2467.00,0.0270
2466.00,0.0270
2465.00,0.0270
2464.00,0.0270
2463.00,0.0270
2462.00,0.0271
2461.00,0.0271
2460.00,0.0271
2459.00,0.0272
2458.00,0.0272
2457.00,0.0272
2456.00,0.0271
2455.00,0.0270
2454.00,0.0270
2453.00,0.0271
2452.00,0.0271
2451.00,0.0271
2450.00,0.0270
2449.00,0.0270
2448.00,0.0270
2447.00,0.0269
2446.00,0.0269
2445.00,0.0269
2444.00,0.0268
2443.00,0.0268
2442.00,0.0268
2441.00,0.0268
2440.00,0.0268
2439.00,0.0268
2438.00,0.0268
2437.00,0.0267
2436.00,0.0267
2435.00,0.0267
2434.00,0.0267
2433.00,0.0267
2432.00,0.0267
2431.00,0.0267
2430.00,0.0267
2429.00,0.0268
2428.00,0.0267
2427.00,0.0267
2426.00,0.0267
2425.00,0.0267
2424.00,0.0266
2423.00,0.0266
2422.00,0.0265
2421.00,0.0265
2420.00,0.0265
2419.00,0.0265
2418.00,0.0265
2417.00,0.0265
2416.00,0.0264
2415.00,0.0264
2414.00,0.0264
2413.00,0.0264
2412.00,0.0264
2411.00,0.0264
2410.00,0.0264
2409.00,0.0264
2408.00,0.0264
2407.00,0.0264
2406.00,0.0263
2405.00,0.0263
2404.00,0.0263
2403.00,0.0263
2402.00,0.0263
2401.00,0.0262
2400.00,0.0261
2399.00,0.0261
2398.00,0.0260
2397.00,0.0260
2396.00,0.0260
2395.00,0.0260
2394.00,0.0261
2393.00,0.0261
2392.00,0.0261
2391.00,0.0260
2390.00,0.0259
2389.00,0.0258
2388.00,0.0257
2387.00,0.0255
2386.00,0.0254
2385.00,0.0252
2384.00,0.0249
2383.00,0.0247
2382.00,0.0245
2381.00,0.0244
2380.00,0.0243
2379.00,0.0243
2378.00,0.0244
2377.00,0.0245
2376.00,0.0246
2375.00,0.0248
2374.00,0.0248
2373.00,0.0247
2372.00,0.0246
2371.00,0.0245
2370.00,0.0244
2369.00,0.0244
2368.00,0.0245
2367.00,0.0245
2366.00,0.0246
2365.00,0.0245
2364.00,0.0245
2363.00,0.0246
2362.00,0.0248
2361.00,0.0249
2360.00,0.0250
2359.00,0.0248
2358.00,0.0247
2357.00,0.0247
2356.00,0.0247
2355.00,0.0247
2354.00,0.0246
2353.00,0.0245
2352.00,0.0246
2351.00,0.0246
2350.00,0.0245
2349.00,0.0242
2348.00,0.0237
2347.00,0.0233
2346.00,0.0234
2345.00,0.0238
2344.00,0.0243
2343.00,0.0246
2342.00,0.0247
2341.00,0.0248
2340.00,0.0248
2339.00,0.0248
2338.00,0.0248
2337.00,0.0248
2336.00,0.0248
2335.00,0.0248
2334.00,0.0248
2333.00,0.0249
2332.00,0.0250
2331.00,0.0251
2330.00,0.0252
2329.00,0.0253
2328.00,0.0254
2327.00,0.0255
2326.00,0.0255
2325.00,0.0255
2324.00,0.0256
2323.00,0.0256
2322.00,0.0257
2321.00,0.0256
2320.00,0.0255
2319.00,0.0254
2318.00,0.0253
2317.00,0.0252
2316.00,0.0251
2315.00,0.0250
2314.00,0.0249
2313.00,0.0249
2312.00,0.0249
2311.00,0.0249
2310.00,0.0249
2309.00,0.0249
2308.00,0.0249
2307.00,0.0249
2306.00,0.0249
2305.00,0.0249
2304.00,0.0248
2303.00,0.0248
2302.00,0.0247
2301.00,0.0247
2300.00,0.0246
2299.00,0.0246
2298.00,0.0245
2297.00,0.0245
2296.00,0.0245
2295.00,0.0245
2294.00,0.0246
2293.00,0.0246
2292.00,0.0246
2291.00,0.0247
2290.00,0.0247
2289.00,0.0247
2288.00,0.0247
2287.00,0.0246
2286.00,0.0246
2285.00,0.0247
2284.00,0.0247
2283.00,0.0247
2282.00,0.0247
2281.00,0.0247
2280.00,0.0246
2279.00,0.0245
2278.00,0.0244
2277.00,0.0244
2276.00,0.0244
2275.00,0.0245
2274.00,0.0246
2273.00,0.0246
2272.00,0.0246
2271.00,0.0244
2270.00,0.0243
2269.00,0.0242
2268.00,0.0243
2267.00,0.0243
2266.00,0.0244
2265.00,0.0244
2264.00,0.0243
2263.00,0.0243
2262.00,0.0242
2261.00,0.0242
2260.00,0.0243
2259.00,0.0243
2258.00,0.0244
2257.00,0.0245
2256.00,0.0244
2255.00,0.0243
2254.00,0.0242
2253.00,0.0241
2252.00,0.0240
2251.00,0.0240
2250.00,0.0241
2249.00,0.0241
2248.00,0.0241
2247.00,0.0241
2246.00,0.0240
2245.00,0.0239
2244.00,0.0238
2243.00,0.0239
2242.00,0.0240
2241.00,0.0240
2240.00,0.0241
2239.00,0.0240
2238.00,0.0239
2237.00,0.0239
2236.00,0.0239
2235.00,0.0238
2234.00,0.0239
2233.00,0.0239
2232.00,0.0239
2231.00,0.0240
2230.00,0.0240
2229.00,0.0240
2228.00,0.0240
2227.00,0.0240
2226.00,0.0240
2225.00,0.0239
2224.00,0.0239
2223.00,0.0239
2222.00,0.0240
2221.00,0.0241
2220.00,0.0241
2219.00,0.0239
2218.00,0.0238
2217.00,0.0237
2216.00,0.0237
2215.00,0.0238
2214.00,0.0238
2213.00,0.0238
2212.00,0.0237
2211.00,0.0236
2210.00,0.0236
2209.00,0.0237
2208.00,0.0237
2207.00,0.0238
2206.00,0.0238
2205.00,0.0237
2204.00,0.0238
2203.00,0.0238
2202.00,0.0237
2201.00,0.0237
2200.00,0.0237
2199.00,0.0237
2198.00,0.0237
2197.00,0.0238
2196.00,0.0238
2195.00,0.0239
2194.00,0.0238
2193.00,0.0237
2192.00,0.0235
2191.00,0.0235
2190.00,0.0235
2189.00,0.0236
2188.00,0.0235
2187.00,0.0234
2186.00,0.0232
2185.00,0.0231
2184.00,0.0232
2183.00,0.0232
2182.00,0.0233
2181.00,0.0234
2180.00,0.0235
2179.00,0.0235
2178.00,0.0235
2177.00,0.0233
2176.00,0.0232
2175.00,0.0232
2174.00,0.0233
2173.00,0.0235
2172.00,0.0236
2171.00,0.0235
2170.00,0.0233
2169.00,0.0231
2168.00,0.0229
2167.00,0.0229
2166.00,0.0230
2165.00,0.0232
2164.00,0.0235
2163.00,0.0238
2162.00,0.0238
2161.00,0.0235
2160.00,0.0229
2159.00,0.0223
2158.00,0.0220
2157.00,0.0220
2156.00,0.0222
2155.00,0.0224
2154.00,0.0225
2153.00,0.0224
2152.00,0.0223
2151.00,0.0223
2150.00,0.0222
2149.00,0.0222
2148.00,0.0222
2147.00,0.0221
2146.00,0.0220
2145.00,0.0219
2144.00,0.0219
2143.00,0.0219
2142.00,0.0219
2141.00,0.0219
2140.00,0.0219
2139.00,0.0218
2138.00,0.0219
2137.00,0.0219
2136.00,0.0217
2135.00,0.0215
2134.00,0.0214
2133.00,0.0213
2132.00,0.0214
2131.00,0.0214
2130.00,0.0215
2129.00,0.0215
2128.00,0.0214
2127.00,0.0214
2126.00,0.0213
2125.00,0.0213
2124.00,0.0214
2123.00,0.0215
2122.00,0.0216
2121.00,0.0217
2120.00,0.0218
2119.00,0.0218
2118.00,0.0218
2117.00,0.0218
2116.00,0.0218
2115.00,0.0218
2114.00,0.0218
2113.00,0.0218
2112.00,0.0217
2111.00,0.0216
2110.00,0.0215
2109.00,0.0215
2108.00,0.0214
2107.00,0.0213
2106.00,0.0213
2105.00,0.0213
2104.00,0.0213
2103.00,0.0214
2102.00,0.0214
2101.00,0.0213
2100.00,0.0213
2099.00,0.0213
2098.00,0.0213
2097.00,0.0213
2096.00,0.0212
2095.00,0.0211
2094.00,0.0210
2093.00,0.0210
2092.00,0.0210
2091.00,0.0211
2090.00,0.0212
2089.00,0.0212
2088.00,0.0212
2087.00,0.0212
2086.00,0.0211
2085.00,0.0211
2084.00,0.0211
2083.00,0.0211
2082.00,0.0211
2081.00,0.0210
2080.00,0.0210
2079.00,0.0209
2078.00,0.0209
2077.00,0.0209
2076.00,0.0209
2075.00,0.0209
2074.00,0.0209
2073.00,0.0209
2072.00,0.0209
2071.00,0.0209
2070.00,0.0210
2069.00,0.0211
2068.00,0.0212
2067.00,0.0212
2066.00,0.0211
2065.00,0.0211
2064.00,0.0210
2063.00,0.0209
2062.00,0.0209
2061.00,0.0210
2060.00,0.0211
2059.00,0.0210
2058.00,0.0209
2057.00,0.0209
2056.00,0.0208
2055.00,0.0208
2054.00,0.0208
2053.00,0.0208
2052.00,0.0208
2051.00,0.0209
2050.00,0.0209
2049.00,0.0210
2048.00,0.0210
2047.00,0.0210
2046.00,0.0211
2045.00,0.0211
2044.00,0.0210
2043.00,0.0209
2042.00,0.0208
2041.00,0.0208
2040.00,0.0209
2039.00,0.0210
2038.00,0.0211
2037.00,0.0212
2036.00,0.0211
2035.00,0.0209
2034.00,0.0207
2033.00,0.0206
2032.00,0.0205
2031.00,0.0204
2030.00,0.0205
2029.00,0.0206
2028.00,0.0206
2027.00,0.0204
2026.00,0.0202
2025.00,0.0201
2024.00,0.0202
2023.00,0.0203
2022.00,0.0205
2021.00,0.0206
2020.00,0.0206
2019.00,0.0205
2018.00,0.0203
2017.00,0.0201
2016.00,0.0201
2015.00,0.0201
2014.00,0.0202
2013.00,0.0202
2012.00,0.0201
2011.00,0.0200
2010.00,0.0198
2009.00,0.0196
2008.00,0.0194
2007.00,0.0193
2006.00,0.0192
2005.00,0.0194
2004.00,0.0196
2003.00,0.0197
2002.00,0.0198
2001.00,0.0198
2000.00,0.0197
1999.00,0.0197
1998.00,0.0197
1997.00,0.0198
1996.00,0.0199
1995.00,0.0200
1994.00,0.0201
1993.00,0.0202
1992.00,0.0200
1991.00,0.0198
1990.00,0.0196
1989.00,0.0195
1988.00,0.0195
1987.00,0.0194
1986.00,0.0194
1985.00,0.0195
1984.00,0.0197
1983.00,0.0198
1982.00,0.0199
1981.00,0.0200
1980.00,0.0200
1979.00,0.0200
1978.00,0.0199
1977.00,0.0198
1976.00,0.0197
1975.00,0.0196
1974.00,0.0194
1973.00,0.0193
1972.00,0.0192
1971.00,0.0193
1970.00,0.0194
1969.00,0.0195
1968.00,0.0194
1967.00,0.0193
1966.00,0.0191
1965.00,0.0189
1964.00,0.0188
1963.00,0.0189
1962.00,0.0189
1961.00,0.0189
1960.00,0.0187
1959.00,0.0185
1958.00,0.0183
1957.00,0.0181
1956.00,0.0179
1955.00,0.0178
1954.00,0.0179
1953.00,0.0180
1952.00,0.0182
1951.00,0.0182
1950.00,0.0182
1949.00,0.0182
1948.00,0.0181
1947.00,0.0182
1946.00,0.0184
1945.00,0.0185
1944.00,0.0185
1943.00,0.0182
1942.00,0.0180
1941.00,0.0179
1940.00,0.0179
1939.00,0.0179
1938.00,0.0179
1937.00,0.0179
1936.00,0.0178
1935.00,0.0178
1934.00,0.0178
1933.00,0.0177
1932.00,0.0177
1931.00,0.0176
1930.00,0.0176
1929.00,0.0176
1928.00,0.0176
1927.00,0.0176
1926.00,0.0176
1925.00,0.0178
1924.00,0.0178
1923.00,0.0176
1922.00,0.0174
1921.00,0.0174
1920.00,0.0174
1919.00,0.0174
1918.00,0.0173
1917.00,0.0171
1916.00,0.0170
1915.00,0.0169
1914.00,0.0168
1913.00,0.0168
1912.00,0.0168
1911.00,0.0168
1910.00,0.0168
1909.00,0.0168
1908.00,0.0167
1907.00,0.0166
1906.00,0.0165
1905.00,0.0165
1904.00,0.0164
1903.00,0.0164
1902.00,0.0163
1901.00,0.0163
1900.00,0.0162
1899.00,0.0162
1898.00,0.0162
1897.00,0.0163
1896.00,0.0163
1895.00,0.0163
1894.00,0.0162
1893.00,0.0162
1892.00,0.0162
1891.00,0.0161
1890.00,0.0159
1889.00,0.0157
1888.00,0.0156
1887.00,0.0156
1886.00,0.0156
1885.00,0.0156
1884.00,0.0156
1883.00,0.0155
1882.00,0.0156
1881.00,0.0156
1880.00,0.0156
1879.00,0.0155
1878.00,0.0154
1877.00,0.0153
1876.00,0.0152
1875.00,0.0152
1874.00,0.0152
1873.00,0.0153
1872.00,0.0155
1871.00,0.0156
1870.00,0.0155
1869.00,0.0153
1868.00,0.0150
1867.00,0.0149
1866.00,0.0149
1865.00,0.0150
1864.00,0.0149
1863.00,0.0148
1862.00,0.0147
1861.00,0.0147
1860.00,0.0146
1859.00,0.0145
1858.00,0.0144
1857.00,0.0144
1856.00,0.0144
1855.00,0.0144
1854.00,0.0143
1853.00,0.0142
1852.00,0.0141
1851.00,0.0141
1850.00,0.0141
1849.00,0.0142
1848.00,0.0143
1847.00,0.0144
1846.00,0.0145
1845.00,0.0142
1844.00,0.0138
1843.00,0.0135
1842.00,0.0135
1841.00,0.0137
1840.00,0.0138
1839.00,0.0138
1838.00,0.0137
1837.00,0.0136
1836.00,0.0136
1835.00,0.0135
1834.00,0.0136
1833.00,0.0138
1832.00,0.0140
1831.00,0.0139
1830.00,0.0136
1829.00,0.0134
1828.00,0.0134
1827.00,0.0134
1826.00,0.0134
1825.00,0.0132
1824.00,0.0130
1823.00,0.0129
1822.00,0.0128
1821.00,0.0128
1820.00,0.0128
1819.00,0.0127
1818.00,0.0126
1817.00,0.0126
1816.00,0.0126
1815.00,0.0127
1814.00,0.0127
1813.00,0.0127
1812.00,0.0127
1811.00,0.0127
1810.00,0.0125
1809.00,0.0124
1808.00,0.0124
1807.00,0.0124
1806.00,0.0125
1805.00,0.0127
1804.00,0.0129
1803.00,0.0130
1802.00,0.0131
1801.00,0.0130
1800.00,0.0129
1799.00,0.0129
1798.00,0.0129
1797.00,0.0130
1796.00,0.0133
1795.00,0.0135
1794.00,0.0136
1793.00,0.0135
1792.00,0.0134
1791.00,0.0134
1790.00,0.0135
1789.00,0.0137
1788.00,0.0138
1787.00,0.0139
1786.00,0.0140
1785.00,0.0140
1784.00,0.0142
1783.00,0.0145
1782.00,0.0148
1781.00,0.0150
1780.00,0.0151
1779.00,0.0152
1778.00,0.0154
1777.00,0.0157
1776.00,0.0160
1775.00,0.0164
1774.00,0.0166
1773.00,0.0166
1772.00,0.0166
1771.00,0.0167
1770.00,0.0168
1769.00,0.0171
1768.00,0.0172
1767.00,0.0173
1766.00,0.0176
1765.00,0.0180
1764.00,0.0184
1763.00,0.0186
1762.00,0.0187
1761.00,0.0188
1760.00,0.0191
1759.00,0.0194
1758.00,0.0197
1757.00,0.0198
1756.00,0.0200
1755.00,0.0202
1754.00,0.0205
1753.00,0.0208
1752.00,0.0210
1751.00,0.0213
1750.00,0.0217
1749.00,0.0221
1748.00,0.0225
1747.00,0.0229
1746.00,0.0232
1745.00,0.0234
1744.00,0.0238
1743.00,0.0241
1742.00,0.0243
1741.00,0.0244
1740.00,0.0245
1739.00,0.0247
1738.00,0.0251
1737.00,0.0255
1736.00,0.0259
1735.00,0.0259
1734.00,0.0259
1733.00,0.0261
1732.00,0.0265
1731.00,0.0270
1730.00,0.0273
1729.00,0.0275
1728.00,0.0276
1727.00,0.0278
1726.00,0.0279
1725.00,0.0281
1724.00,0.0284
1723.00,0.0286
1722.00,0.0288
1721.00,0.0291
1720.00,0.0293
1719.00,0.0293
1718.00,0.0292
1717.00,0.0293
1716.00,0.0295
1715.00,0.0295
1714.00,0.0296
1713.00,0.0297
1712.00,0.0297
1711.00,0.0297
1710.00,0.0298
1709.00,0.0299
1708.00,0.0300
1707.00,0.0301
1706.00,0.0302
1705.00,0.0302
1704.00,0.0303
1703.00,0.0304
1702.00,0.0303
1701.00,0.0299
1700.00,0.0295
1699.00,0.0294
1698.00,0.0296
1697.00,0.0299
1696.00,0.0297
1695.00,0.0293
1694.00,0.0293
1693.00,0.0296
1692.00,0.0299
1691.00,0.0300
1690.00,0.0300
1689.00,0.0301
1688.00,0.0302
1687.00,0.0304
1686.00,0.0304
1685.00,0.0302
1684.00,0.0303
1683.00,0.0304
1682.00,0.0306
1681.00,0.0308
1680.00,0.0310
1679.00,0.0310
1678.00,0.0311
1677.00,0.0312
1676.00,0.0312
1675.00,0.0313
1674.00,0.0315
1673.00,0.0318
1672.00,0.0322
1671.00,0.0325
1670.00,0.0327
1669.00,0.0329
1668.00,0.0329
1667.00,0.0331
1666.00,0.0333
1665.00,0.0335
1664.00,0.0337
1663.00,0.0339
1662.00,0.0342
1661.00,0.0344
1660.00,0.0346
1659.00,0.0348
1658.00,0.0349
1657.00,0.0352
1656.00,0.0355
1655.00,0.0356
1654.00,0.0357
1653.00,0.0361
1652.00,0.0363
1651.00,0.0365
1650.00,0.0371
1649.00,0.0376
1648.00,0.0379
1647.00,0.0382
1646.00,0.0384
1645.00,0.0386
1644.00,0.0387
1643.00,0.0390
1642.00,0.0392
1641.00,0.0394
1640.00,0.0396
1639.00,0.0398
1638.00,0.0400
1637.00,0.0403
1636.00,0.0408
1635.00,0.0413
1634.00,0.0415
1633.00,0.0417
1632.00,0.0419
1631.00,0.0422
1630.00,0.0425
1629.00,0.0428
1628.00,0.0432
1627.00,0.0436
1626.00,0.0438
1625.00,0.0441
1624.00,0.0444
1623.00,0.0448
1622.00,0.0452
1621.00,0.0453
1620.00,0.0454
1619.00,0.0455
1618.00,0.0457
1617.00,0.0461
1616.00,0.0465
1615.00,0.0468
1614.00,0.0470
1613.00,0.0472
1612.00,0.0474
1611.00,0.0476
1610.00,0.0479
1609.00,0.0482
1608.00,0.0485
1607.00,0.0488
1606.00,0.0489
1605.00,0.0491
1604.00,0.0492
1603.00,0.0495
1602.00,0.0498
1601.00,0.0500
1600.00,0.0502
1599.00,0.0503
1598.00,0.0505
1597.00,0.0506
1596.00,0.0508
1595.00,0.0510
1594.00,0.0512
1593.00,0.0513
1592.00,0.0513
1591.00,0.0514
1590.00,0.0516
1589.00,0.0517
1588.00,0.0518
1587.00,0.0519
1586.00,0.0520
1585.00,0.0520
1584.00,0.0520
1583.00,0.0521
1582.00,0.0522
1581.00,0.0523
1580.00,0.0523
1579.00,0.0523
1578.00,0.0523
1577.00,0.0523
1576.00,0.0525
1575.00,0.0527
1574.00,0.0527
1573.00,0.0527
1572.00,0.0525
1571.00,0.0525
1570.00,0.0525
1569.00,0.0527
1568.00,0.0527
1567.00,0.0526
1566.00,0.0525
1565.00,0.0523
1564.00,0.0522
1563.00,0.0520
1562.00,0.0516
1561.00,0.0511
1560.00,0.0507
1559.00,0.0516
1558.00,0.0522
1557.00,0.0517
1556.00,0.0513
1555.00,0.0510
1554.00,0.0507
1553.00,0.0504
1552.00,0.0502
1551.00,0.0502
1550.00,0.0501
1549.00,0.0499
1548.00,0.0496
1547.00,0.0492
1546.00,0.0489
1545.00,0.0487
1544.00,0.0487
1543.00,0.0486
1542.00,0.0482
1541.00,0.0479
1540.00,0.0478
1539.00,0.0476
1538.00,0.0471
1537.00,0.0468
1536.00,0.0467
1535.00,0.0465
1534.00,0.0464
1533.00,0.0463
1532.00,0.0462
1531.00,0.0458
1530.00,0.0455
1529.00,0.0453
1528.00,0.0452
1527.00,0.0450
1526.00,0.0449
1525.00,0.0447
1524.00,0.0445
1523.00,0.0442
1522.00,0.0440
1521.00,0.0439
1520.00,0.0437
1519.00,0.0436
1518.00,0.0435
1517.00,0.0435
1516.00,0.0433
1515.00,0.0429
1514.00,0.0425
1513.00,0.0421
1512.00,0.0420
1511.00,0.0420
1510.00,0.0420
1509.00,0.0421
1508.00,0.0422
1507.00,0.0422
1506.00,0.0417
1505.00,0.0409
1504.00,0.0405
1503.00,0.0404
1502.00,0.0402
1501.00,0.0400
1500.00,0.0399
1499.00,0.0397
1498.00,0.0395
1497.00,0.0394
1496.00,0.0394
1495.00,0.0395
1494.00,0.0395
1493.00,0.0396
1492.00,0.0397
1491.00,0.0398
1490.00,0.0400
1489.00,0.0402
1488.00,0.0401
1487.00,0.0399
1486.00,0.0397
1485.00,0.0395
1484.00,0.0394
1483.00,0.0394
1482.00,0.0394
1481.00,0.0394
1480.00,0.0395
1479.00,0.0395
1478.00,0.0395
1477.00,0.0396
1476.00,0.0397
1475.00,0.0398
1474.00,0.0398
1473.00,0.0399
1472.00,0.0399
1471.00,0.0398
1470.00,0.0398
1469.00,0.0398
1468.00,0.0398
1467.00,0.0399
1466.00,0.0400
1465.00,0.0401
1464.00,0.0402
1463.00,0.0402
1462.00,0.0402
1461.00,0.0403
1460.00,0.0403
1459.00,0.0403
1458.00,0.0403
1457.00,0.0405
1456.00,0.0407
1455.00,0.0407
1454.00,0.0409
1453.00,0.0410
1452.00,0.0412
1451.00,0.0413
1450.00,0.0414
1449.00,0.0416
1448.00,0.0418
1447.00,0.0419
1446.00,0.0419
1445.00,0.0419
1444.00,0.0420
1443.00,0.0420
1442.00,0.0421
1441.00,0.0422
1440.00,0.0423
1439.00,0.0424
1438.00,0.0425
1437.00,0.0427
1436.00,0.0430
1435.00,0.0432
1434.00,0.0434
1433.00,0.0435
1432.00,0.0436
1431.00,0.0437
1430.00,0.0439
1429.00,0.0440
1428.00,0.0440
1427.00,0.0440
1426.00,0.0440
1425.00,0.0441
1424.00,0.0443
1423.00,0.0444
1422.00,0.0444
1421.00,0.0443
1420.00,0.0444
1419.00,0.0447
1418.00,0.0450
1417.00,0.0451
1416.00,0.0452
1415.00,0.0451
1414.00,0.0450
1413.00,0.0450
1412.00,0.0451
1411.00,0.0452
1410.00,0.0453
1409.00,0.0453
1408.00,0.0453
1407.00,0.0454
1406.00,0.0455
1405.00,0.0457
1404.00,0.0459
1403.00,0.0461
1402.00,0.0461
1401.00,0.0462
1400.00,0.0464
1399.00,0.0467
1398.00,0.0469
1397.00,0.0470
1396.00,0.0471
1395.00,0.0472
1394.00,0.0473
1393.00,0.0472
1392.00,0.0471
1391.00,0.0471
1390.00,0.0471
1389.00,0.0472
1388.00,0.0473
1387.00,0.0475
1386.00,0.0477
1385.00,0.0477
1384.00,0.0478
1383.00,0.0478
1382.00,0.0478
1381.00,0.0478
1380.00,0.0479
1379.00,0.0479
1378.00,0.0480
1377.00,0.0480
1376.00,0.0482
1375.00,0.0483
1374.00,0.0485
1373.00,0.0484
1372.00,0.0483
1371.00,0.0482
1370.00,0.0482
1369.00,0.0482
1368.00,0.0482
1367.00,0.0481
1366.00,0.0480
1365.00,0.0479
1364.00,0.0480
1363.00,0.0482
1362.00,0.0483
1361.00,0.0483
1360.00,0.0482
1359.00,0.0480
1358.00,0.0479
1357.00,0.0478
1356.00,0.0477
1355.00,0.0477
1354.00,0.0476
1353.00,0.0476
1352.00,0.0475
1351.00,0.0474
1350.00,0.0474
1349.00,0.0474
1348.00,0.0473
1347.00,0.0473
1346.00,0.0472
1345.00,0.0471
1344.00,0.0471
1343.00,0.0470
1342.00,0.0471
1341.00,0.0472
1340.00,0.0474
1339.00,0.0475
1338.00,0.0475
1337.00,0.0474
1336.00,0.0472
1335.00,0.0470
1334.00,0.0468
1333.00,0.0467
1332.00,0.0466
1331.00,0.0465
1330.00,0.0464
1329.00,0.0463
1328.00,0.0462
1327.00,0.0462
1326.00,0.0461
1325.00,0.0461
1324.00,0.0460
1323.00,0.0460
1322.00,0.0459
1321.00,0.0458
1320.00,0.0458
1319.00,0.0458
1318.00,0.0458
1317.00,0.0458
1316.00,0.0458
1315.00,0.0458
1314.00,0.0458
1313.00,0.0457
1312.00,0.0457
1311.00,0.0456
1310.00,0.0455
1309.00,0.0455
1308.00,0.0454
1307.00,0.0454
1306.00,0.0453
1305.00,0.0453
1304.00,0.0453
1303.00,0.0454
1302.00,0.0454
1301.00,0.0454
1300.00,0.0454
1299.00,0.0454
1298.00,0.0454
1297.00,0.0454
1296.00,0.0454
1295.00,0.0455
1294.00,0.0455
1293.00,0.0455
1292.00,0.0455
1291.00,0.0456
1290.00,0.0456
1289.00,0.0457
1288.00,0.0459
1287.00,0.0459
1286.00,0.0460
1285.00,0.0460
1284.00,0.0460
1283.00,0.0460
1282.00,0.0460
1281.00,0.0461
1280.00,0.0461
1279.00,0.0462
1278.00,0.0463
1277.00,0.0463
1276.00,0.0464
1275.00,0.0465
1274.00,0.0465
1273.00,0.0466
1272.00,0.0467
1271.00,0.0468
1270.00,0.0468
1269.00,0.0469
1268.00,0.0470
1267.00,0.0470
1266.00,0.0471
1265.00,0.0471
1264.00,0.0471
1263.00,0.0471
1262.00,0.0471
1261.00,0.0472
1260.00,0.0474
1259.00,0.0475
1258.00,0.0477
1257.00,0.0478
1256.00,0.0480
1255.00,0.0482
1254.00,0.0484
1253.00,0.0486
1252.00,0.0488
1251.00,0.0489
1250.00,0.0490
1249.00,0.0490
1248.00,0.0490
1247.00,0.0491
1246.00,0.0492
1245.00,0.0493
1244.00,0.0494
1243.00,0.0495
1242.00,0.0496
1241.00,0.0497
1240.00,0.0497
1239.00,0.0497
1238.00,0.0498
1237.00,0.0499
1236.00,0.0499
1235.00,0.0500
1234.00,0.0500
1233.00,0.0499
1232.00,0.0499
1231.00,0.0499
1230.00,0.0500
1229.00,0.0500
1228.00,0.0500
1227.00,0.0500
1226.00,0.0500
1225.00,0.0501
1224.00,0.0501
1223.00,0.0502
1222.00,0.0501
1221.00,0.0501
1220.00,0.0500
1219.00,0.0500
1218.00,0.0501
1217.00,0.0501
1216.00,0.0501
1215.00,0.0501
1214.00,0.0501
1213.00,0.0501
1212.00,0.0502
1211.00,0.0502
1210.00,0.0503
1209.00,0.0503
1208.00,0.0504
1207.00,0.0504
1206.00,0.0504
1205.00,0.0504
1204.00,0.0505
1203.00,0.0505
1202.00,0.0505
1201.00,0.0505
1200.00,0.0506
1199.00,0.0506
1198.00,0.0506
1197.00,0.0506
1196.00,0.0507
1195.00,0.0508
1194.00,0.0509
1193.00,0.0510
1192.00,0.0510
1191.00,0.0511
1190.00,0.0511
1189.00,0.0512
1188.00,0.0513
1187.00,0.0514
1186.00,0.0515
1185.00,0.0516
1184.00,0.0517
1183.00,0.0517
1182.00,0.0517
1181.00,0.0517
1180.00,0.0518
1179.00,0.0520
1178.00,0.0522
1177.00,0.0524
1176.00,0.0526
1175.00,0.0527
1174.00,0.0528
1173.00,0.0528
1172.00,0.0529
1171.00,0.0529
1170.00,0.0531
1169.00,0.0533
1168.00,0.0535
1167.00,0.0536
1166.00,0.0537
1165.00,0.0537
1164.00,0.0538
1163.00,0.0538
1162.00,0.0539
1161.00,0.0539
1160.00,0.0539
1159.00,0.0539
1158.00,0.0539
1157.00,0.0540
1156.00,0.0540
1155.00,0.0542
1154.00,0.0543
1153.00,0.0544
1152.00,0.0545
1151.00,0.0547
1150.00,0.0548
1149.00,0.0550
1148.00,0.0553
1147.00,0.0555
1146.00,0.0557
1145.00,0.0558
1144.00,0.0559
1143.00,0.0560
1142.00,0.0561
1141.00,0.0561
1140.00,0.0563
1139.00,0.0564
1138.00,0.0566
1137.00,0.0569
1136.00,0.0572
1135.00,0.0575
1134.00,0.0578
1133.00,0.0581
1132.00,0.0585
1131.00,0.0588
1130.00,0.0591
1129.00,0.0595
1128.00,0.0600
1127.00,0.0605
1126.00,0.0610
1125.00,0.0615
1124.00,0.0621
1123.00,0.0626
1122.00,0.0633
1121.00,0.0640
1120.00,0.0648
1119.00,0.0656
1118.00,0.0663
1117.00,0.0668
1116.00,0.0672
1115.00,0.0673
1114.00,0.0673
1113.00,0.0673
1112.00,0.0672
1111.00,0.0672
1110.00,0.0672
1109.00,0.0674
1108.00,0.0678
1107.00,0.0682
1106.00,0.0685
1105.00,0.0689
1104.00,0.0693
1103.00,0.0696
1102.00,0.0698
1101.00,0.0700
1100.00,0.0702
1099.00,0.0704
1098.00,0.0706
1097.00,0.0707
1096.00,0.0708
1095.00,0.0709
1094.00,0.0710
1093.00,0.0711
1092.00,0.0713
1091.00,0.0713
1090.00,0.0712
1089.00,0.0712
1088.00,0.0712
1087.00,0.0711
1086.00,0.0711
1085.00,0.0710
1084.00,0.0710
1083.00,0.0711
1082.00,0.0712
1081.00,0.0714
1080.00,0.0714
1079.00,0.0715
1078.00,0.0715
1077.00,0.0716
1076.00,0.0717
1075.00,0.0719
1074.00,0.0721
1073.00,0.0723
1072.00,0.0725
1071.00,0.0727
1070.00,0.0729
1069.00,0.0731
1068.00,0.0734
1067.00,0.0738
1066.00,0.0741
1065.00,0.0745
1064.00,0.0748
1063.00,0.0750
1062.00,0.0753
1061.00,0.0756
1060.00,0.0759
1059.00,0.0763
1058.00,0.0766
1057.00,0.0770
1056.00,0.0774
1055.00,0.0777
1054.00,0.0781
1053.00,0.0786
1052.00,0.0793
1051.00,0.0799
1050.00,0.0803
1049.00,0.0808
1048.00,0.0813
1047.00,0.0818
1046.00,0.0824
1045.00,0.0828
1044.00,0.0832
1043.00,0.0837
1042.00,0.0843
1041.00,0.0849
1040.00,0.0856
1039.00,0.0862
1038.00,0.0867
1037.00,0.0872
1036.00,0.0877
1035.00,0.0879
1034.00,0.0881
1033.00,0.0880
1032.00,0.0878
1031.00,0.0872
1030.00,0.0864
1029.00,0.0855
1028.00,0.0845
1027.00,0.0834
1026.00,0.0823
1025.00,0.0813
1024.00,0.0804
1023.00,0.0798
1022.00,0.0792
1021.00,0.0789
1020.00,0.0787
1019.00,0.0786
1018.00,0.0785
1017.00,0.0787
1016.00,0.0789
1015.00,0.0792
1014.00,0.0795
1013.00,0.0799
1012.00,0.0803
1011.00,0.0806
1010.00,0.0809
1009.00,0.0811
1008.00,0.0813
1007.00,0.0814
1006.00,0.0814
1005.00,0.0813
1004.00,0.0810
1003.00,0.0806
1002.00,0.0801
1001.00,0.0793
1000.00,0.0785
999.00,0.0776
998.00,0.0767
997.00,0.0756
996.00,0.0745
995.00,0.0734
994.00,0.0724
993.00,0.0715
992.00,0.0707
991.00,0.0698
990.00,0.0689
989.00,0.0680
988.00,0.0673
987.00,0.0667
986.00,0.0661
985.00,0.0656
984.00,0.0650
983.00,0.0645
982.00,0.0640
981.00,0.0635
980.00,0.0631
979.00,0.0628
978.00,0.0624
977.00,0.0620
976.00,0.0617
975.00,0.0613
974.00,0.0610
973.00,0.0608
972.00,0.0606
971.00,0.0605
970.00,0.0605
969.00,0.0604
968.00,0.0603
967.00,0.0602
966.00,0.0600
965.00,0.0598
964.00,0.0596
963.00,0.0595
962.00,0.0593
961.00,0.0592
960.00,0.0590
959.00,0.0589
958.00,0.0587
957.00,0.0586
956.00,0.0586
955.00,0.0587
954.00,0.0588
953.00,0.0590
952.00,0.0590
951.00,0.0591
950.00,0.0591
949.00,0.0591
948.00,0.0592
947.00,0.0594
946.00,0.0597
945.00,0.0600
944.00,0.0603
943.00,0.0606
942.00,0.0608
941.00,0.0611
940.00,0.0614
939.00,0.0617
938.00,0.0618
937.00,0.0618
936.00,0.0617
935.00,0.0616
934.00,0.0614
933.00,0.0611
932.00,0.0608
931.00,0.0605
930.00,0.0603
929.00,0.0603
928.00,0.0604
927.00,0.0605
926.00,0.0607
925.00,0.0610
924.00,0.0613
923.00,0.0616
922.00,0.0619
921.00,0.0622
920.00,0.0626
919.00,0.0631
918.00,0.0637
917.00,0.0642
916.00,0.0646
915.00,0.0649
914.00,0.0649
913.00,0.0649
912.00,0.0647
911.00,0.0645
910.00,0.0641
909.00,0.0637
908.00,0.0631
907.00,0.0624
906.00,0.0617
905.00,0.0612
904.00,0.0607
903.00,0.0603
902.00,0.0599
901.00,0.0594
900.00,0.0590
899.00,0.0585
898.00,0.0580
897.00,0.0576
896.00,0.0572
895.00,0.0568
894.00,0.0565
893.00,0.0562
892.00,0.0559
891.00,0.0557
890.00,0.0555
889.00,0.0553
888.00,0.0551
887.00,0.0549
886.00,0.0548
885.00,0.0546
884.00,0.0545
883.00,0.0544
882.00,0.0542
881.00,0.0540
880.00,0.0539
879.00,0.0538
878.00,0.0536
877.00,0.0535
876.00,0.0534
875.00,0.0532
874.00,0.0531
873.00,0.0529
872.00,0.0527
871.00,0.0524
870.00,0.0522
869.00,0.0521
868.00,0.0521
867.00,0.0521
866.00,0.0520
865.00,0.0519
864.00,0.0519
863.00,0.0519
862.00,0.0519
861.00,0.0519
860.00,0.0519
859.00,0.0518
858.00,0.0517
857.00,0.0516
856.00,0.0517
855.00,0.0519
854.00,0.0520
853.00,0.0520
852.00,0.0520
851.00,0.0519
850.00,0.0520
849.00,0.0520
848.00,0.0521
847.00,0.0522
846.00,0.0524
845.00,0.0526
844.00,0.0528
843.00,0.0530
842.00,0.0531
841.00,0.0531
840.00,0.0532
839.00,0.0533
838.00,0.0535
837.00,0.0537
836.00,0.0539
835.00,0.0540
834.00,0.0542
833.00,0.0543
832.00,0.0545
831.00,0.0547
830.00,0.0549
829.00,0.0550
828.00,0.0551
827.00,0.0550
826.00,0.0550
825.00,0.0550
824.00,0.0551
823.00,0.0552
822.00,0.0555
821.00,0.0557
820.00,0.0558
819.00,0.0559
818.00,0.0559
817.00,0.0559
816.00,0.0560
815.00,0.0561
814.00,0.0562
813.00,0.0562
812.00,0.0563
811.00,0.0566
810.00,0.0570
809.00,0.0575
808.00,0.0580
807.00,0.0585
806.00,0.0590
805.00,0.0595
804.00,0.0600
803.00,0.0606
802.00,0.0613
801.00,0.0620
800.00,0.0626
799.00,0.0628
798.00,0.0628
797.00,0.0627
796.00,0.0627
795.00,0.0627
794.00,0.0628
793.00,0.0628
792.00,0.0628
791.00,0.0629
790.00,0.0629
789.00,0.0628
788.00,0.0627
787.00,0.0627
786.00,0.0627
785.00,0.0628
784.00,0.0631
783.00,0.0634
782.00,0.0635
781.00,0.0636
780.00,0.0637
779.00,0.0636
778.00,0.0633
777.00,0.0631
776.00,0.0630
775.00,0.0629
774.00,0.0629
773.00,0.0628
772.00,0.0627
771.00,0.0625
770.00,0.0622
769.00,0.0620
768.00,0.0618
767.00,0.0617
766.00,0.0616
765.00,0.0618
764.00,0.0620
763.00,0.0621
762.00,0.0620
761.00,0.0620
760.00,0.0622
759.00,0.0624
758.00,0.0627
757.00,0.0629
756.00,0.0631
755.00,0.0632
754.00,0.0633
753.00,0.0634
752.00,0.0636
751.00,0.0638
750.00,0.0639
749.00,0.0640
748.00,0.0639
747.00,0.0638
746.00,0.0636
745.00,0.0636
744.00,0.0636
743.00,0.0636
742.00,0.0634
741.00,0.0631
740.00,0.0629
739.00,0.0628
738.00,0.0628
737.00,0.0628
736.00,0.0628
735.00,0.0628
734.00,0.0627
733.00,0.0627
732.00,0.0627
731.00,0.0628
730.00,0.0630
729.00,0.0630
728.00,0.0629
727.00,0.0629
726.00,0.0630
725.00,0.0632
724.00,0.0634
723.00,0.0635
722.00,0.0637
721.00,0.0639
720.00,0.0642
719.00,0.0643
718.00,0.0643
717.00,0.0643
716.00,0.0644
715.00,0.0648
714.00,0.0653
713.00,0.0659
712.00,0.0664
711.00,0.0667
710.00,0.0668
709.00,0.0669
708.00,0.0672
707.00,0.0677
706.00,0.0684
705.00,0.0692
704.00,0.0699
703.00,0.0704
702.00,0.0706
701.00,0.0708
700.00,0.0712
699.00,0.0716
698.00,0.0721
697.00,0.0726
696.00,0.0730
695.00,0.0732
694.00,0.0731
693.00,0.0729
692.00,0.0728
691.00,0.0729
690.00,0.0731
689.00,0.0731
688.00,0.0731
687.00,0.0729
686.00,0.0727
685.00,0.0724
684.00,0.0721
683.00,0.0718
682.00,0.0718
681.00,0.0719
680.00,0.0721
679.00,0.0722
678.00,0.0722
677.00,0.0724
676.00,0.0729
675.00,0.0734
674.00,0.0736
673.00,0.0735
672.00,0.0733
671.00,0.0730
670.00,0.0729
669.00,0.0736
668.00,0.0754
667.00,0.0763
666.00,0.0758
665.00,0.0749
664.00,0.0743
663.00,0.0739
662.00,0.0736
661.00,0.0737
660.00,0.0742
659.00,0.0749
658.00,0.0751
657.00,0.0750
656.00,0.0748
655.00,0.0750
654.00,0.0753
653.00,0.0758
652.00,0.0763
651.00,0.0762
650.00,0.0761
