Created as New Dataset,
cm-1,A
4000.00,0.0214
3999.00,0.0214
3998.00,0.0213
3997.00,0.0213
3996.00,0.0215
3995.00,0.0215
3994.00,0.0215
3993.00,0.0215
3992.00,0.0215
3991.00,0.0214
3990.00,0.0214
3989.00,0.0213
3988.00,0.0214
3987.00,0.0214
3986.00,0.0214
3985.00,0.0214
3984.00,0.0214
3983.00,0.0214
3982.00,0.0214
3981.00,0.0215
3980.00,0.0215
3979.00,0.0215
3978.00,0.0215
3977.00,0.0215
3976.00,0.0215
3975.00,0.0215
3974.00,0.0215
3973.00,0.0215
3972.00,0.0215
3971.00,0.0215
3970.00,0.0214
3969.00,0.0214
3968.00,0.0213
3967.00,0.0213
3966.00,0.0213
3965.00,0.0213
3964.00,0.0213
3963.00,0.0214
3962.00,0.0214
3961.00,0.0215
3960.00,0.0215
3959.00,0.0216
3958.00,0.0215
3957.00,0.0215
3956.00,0.0214
3955.00,0.0214
3954.00,0.0214
3953.00,0.0215
3952.00,0.0215
3951.00,0.0216
3950.00,0.0216
3949.00,0.0216
3948.00,0.0216
3947.00,0.0217
3946.00,0.0218
3945.00,0.0219
3944.00,0.0219
3943.00,0.0218
3942.00,0.0217
3941.00,0.0217
3940.00,0.0217
3939.00,0.0216
3938.00,0.0215
3937.00,0.0214
3936.00,0.0214
3935.00,0.0215
3934.00,0.0216
3933.00,0.0216
3932.00,0.0217
3931.00,0.0217
3930.00,0.0218
3929.00,0.0218
3928.00,0.0219
3927.00,0.0219
3926.00,0.0219
3925.00,0.0218
3924.00,0.0217
3923.00,0.0217
3922.00,0.0217
3921.00,0.0217
3920.00,0.0216
3919.00,0.0216
3918.00,0.0216
3917.00,0.0216
3916.00,0.0216
3915.00,0.0216
3914.00,0.0216
3913.00,0.0215
3912.00,0.0214
3911.00,0.0213
3910.00,0.0213
3909.00,0.0214
3908.00,0.0216
3907.00,0.0217
3906.00,0.0218
3905.00,0.0217
3904.00,0.0218
3903.00,0.0220
3902.00,0.0223
3901.00,0.0225
3900.00,0.0224
3899.00,0.0222
3898.00,0.0219
3897.00,0.0218
3896.00,0.0217
3895.00,0.0217
3894.00,0.0217
3893.00,0.0217
3892.00,0.0216
3891.00,0.0215
3890.00,0.0214
3889.00,0.0217
3888.00,0.0219
3887.00,0.0219
3886.00,0.0217
3885.00,0.0216
3884.00,0.0219
3883.00,0.0223
3882.00,0.0225
3881.00,0.0222
3880.00,0.0219
3879.00,0.0217
3878.00,0.0218
3877.00,0.0220
3876.00,0.0221
3875.00,0.0218
3874.00,0.0216
3873.00,0.0217
3872.00,0.0220
3871.00,0.0221
3870.00,0.0218
3869.00,0.0216
3868.00,0.0218
3867.00,0.0221
3866.00,0.0221
3865.00,0.0218
3864.00,0.0217
3863.00,0.0217
3862.00,0.0218
3861.00,0.0217
3860.00,0.0215
3859.00,0.0213
3858.00,0.0213
3857.00,0.0215
3856.00,0.0218
3855.00,0.0218
3854.00,0.0217
3853.00,0.0216
3852.00,0.0218
3851.00,0.0219
3850.00,0.0219
3849.00,0.0216
3848.00,0.0214
3847.00,0.0213
3846.00,0.0212
3845.00,0.0213
3844.00,0.0212
3843.00,0.0213
3842.00,0.0214
3841.00,0.0216
3840.00,0.0218
3839.00,0.0218
3838.00,0.0219
3837.00,0.0219
3836.00,0.0219
3835.00,0.0219
3834.00,0.0219
3833.00,0.0217
3832.00,0.0215
3831.00,0.0213
3830.00,0.0214
3829.00,0.0215
3828.00,0.0215
3827.00,0.0213
3826.00,0.0211
3825.00,0.0212
3824.00,0.0215
3823.00,0.0217
3822.00,0.0215
3821.00,0.0211
3820.00,0.0212
3819.00,0.0215
3818.00,0.0219
3817.00,0.0218
3816.00,0.0213
3815.00,0.0211
3814.00,0.0212
3813.00,0.0212
3812.00,0.0211
3811.00,0.0209
3810.00,0.0209
3809.00,0.0210
3808.00,0.0209
3807.00,0.0207
3806.00,0.0206
3805.00,0.0209
3804.00,0.0214
3803.00,0.0216
3802.00,0.0214
3801.00,0.0212
3800.00,0.0213
3799.00,0.0216
3798.00,0.0217
3797.00,0.0214
3796.00,0.0211
3795.00,0.0209
3794.00,0.0210
3793.00,0.0210
3792.00,0.0209
3791.00,0.0208
3790.00,0.0207
3789.00,0.0207
3788.00,0.0208
3787.00,0.0208
3786.00,0.0208
3785.00,0.0208
3784.00,0.0208
3783.00,0.0209
3782.00,0.0210
3781.00,0.0211
3780.00,0.0210
3779.00,0.0208
3778.00,0.0208
3777.00,0.0209
3776.00,0.0209
3775.00,0.0207
3774.00,0.0206
3773.00,0.0206
3772.00,0.0207
3771.00,0.0207
3770.00,0.0206
3769.00,0.0207
3768.00,0.0210
3767.00,0.0212
3766.00,0.0211
3765.00,0.0209
3764.00,0.0208
3763.00,0.0209
3762.00,0.0211
3761.00,0.0210
3760.00,0.0209
3759.00,0.0209
3758.00,0.0209
3757.00,0.0209
3756.00,0.0209
3755.00,0.0209
3754.00,0.0208
3753.00,0.0205
3752.00,0.0202
3751.00,0.0203
3750.00,0.0205
3749.00,0.0207
3748.00,0.0210
3747.00,0.0214
3746.00,0.0217
3745.00,0.0214
3744.00,0.0209
3743.00,0.0207
3742.00,0.0208
3741.00,0.0208
3740.00,0.0206
3739.00,0.0205
3738.00,0.0206
3737.00,0.0207
3736.00,0.0208
3735.00,0.0210
3734.00,0.0213
3733.00,0.0213
3732.00,0.0210
3731.00,0.0207
3730.00,0.0206
3729.00,0.0206
3728.00,0.0206
3727.00,0.0205
3726.00,0.0205
3725.00,0.0207
3724.00,0.0209
3723.00,0.0210
3722.00,0.0209
3721.00,0.0208
3720.00,0.0208
3719.00,0.0207
3718.00,0.0206
3717.00,0.0204
3716.00,0.0205
3715.00,0.0206
3714.00,0.0206
3713.00,0.0206
3712.00,0.0206
3711.00,0.0208
3710.00,0.0210
3709.00,0.0211
3708.00,0.0211
3707.00,0.0209
3706.00,0.0208
3705.00,0.0208
3704.00,0.0210
3703.00,0.0211
3702.00,0.0211
3701.00,0.0211
3700.00,0.0212
3699.00,0.0212
3698.00,0.0212
3697.00,0.0211
3696.00,0.0211
3695.00,0.0211
3694.00,0.0212
3693.00,0.0214
3692.00,0.0215
3691.00,0.0215
3690.00,0.0216
3689.00,0.0217
3688.00,0.0216
3687.00,0.0215
3686.00,0.0215
3685.00,0.0214
3684.00,0.0212
3683.00,0.0210
3682.00,0.0209
3681.00,0.0208
3680.00,0.0207
3679.00,0.0208
3678.00,0.0212
3677.00,0.0216
3676.00,0.0217
3675.00,0.0217
3674.00,0.0218
3673.00,0.0221
3672.00,0.0222
3671.00,0.0219
3670.00,0.0216
3669.00,0.0216
3668.00,0.0218
3667.00,0.0219
3666.00,0.0217
3665.00,0.0215
3664.00,0.0214
3663.00,0.0213
3662.00,0.0213
3661.00,0.0214
3660.00,0.0214
3659.00,0.0216
3658.00,0.0217
3657.00,0.0218
3656.00,0.0219
3655.00,0.0221
3654.00,0.0225
3653.00,0.0229
3652.00,0.0230
3651.00,0.0228
3650.00,0.0229
3649.00,0.0236
3648.00,0.0242
3647.00,0.0244
3646.00,0.0241
3645.00,0.0238
3644.00,0.0236
3643.00,0.0234
3642.00,0.0233
3641.00,0.0232
3640.00,0.0232
3639.00,0.0232
3638.00,0.0233
3637.00,0.0233
3636.00,0.0235
3635.00,0.0235
3634.00,0.0234
3633.00,0.0234
3632.00,0.0236
3631.00,0.0240
3630.00,0.0242
3629.00,0.0244
3628.00,0.0247
3627.00,0.0249
3626.00,0.0250
3625.00,0.0249
3624.00,0.0248
3623.00,0.0248
3622.00,0.0250
3621.00,0.0253
3620.00,0.0256
3619.00,0.0259
3618.00,0.0261
3617.00,0.0262
3616.00,0.0262
3615.00,0.0261
3614.00,0.0258
3613.00,0.0257
3612.00,0.0257
3611.00,0.0258
3610.00,0.0260
3609.00,0.0260
3608.00,0.0261
3607.00,0.0262
3606.00,0.0263
3605.00,0.0263
3604.00,0.0262
3603.00,0.0261
3602.00,0.0261
3601.00,0.0261
3600.00,0.0262
3599.00,0.0264
3598.00,0.0265
3597.00,0.0267
3596.00,0.0268
3595.00,0.0269
3594.00,0.0269
3593.00,0.0269
3592.00,0.0269
3591.00,0.0269
3590.00,0.0271
3589.00,0.0273
3588.00,0.0276
3587.00,0.0279
3586.00,0.0281
3585.00,0.0281
3584.00,0.0280
3583.00,0.0278
3582.00,0.0277
3581.00,0.0276
3580.00,0.0277
3579.00,0.0278
3578.00,0.0278
3577.00,0.0279
3576.00,0.0279
3575.00,0.0278
3574.00,0.0278
3573.00,0.0278
3572.00,0.0279
3571.00,0.0280
3570.00,0.0283
3569.00,0.0286
3568.00,0.0289
3567.00,0.0293
3566.00,0.0296
3565.00,0.0297
3564.00,0.0296
3563.00,0.0294
3562.00,0.0292
3561.00,0.0291
3560.00,0.0290
3559.00,0.0289
3558.00,0.0289
3557.00,0.0289
3556.00,0.0289
3555.00,0.0289
3554.00,0.0290
3553.00,0.0292
3552.00,0.0293
3551.00,0.0294
3550.00,0.0295
3549.00,0.0296
3548.00,0.0296
3547.00,0.0298
3546.00,0.0300
3545.00,0.0301
3544.00,0.0302
3543.00,0.0302
3542.00,0.0301
3541.00,0.0300
3540.00,0.0300
3539.00,0.0300
3538.00,0.0301
3537.00,0.0302
3536.00,0.0303
3535.00,0.0304
3534.00,0.0304
3533.00,0.0303
3532.00,0.0303
3531.00,0.0303
3530.00,0.0304
3529.00,0.0305
3528.00,0.0306
3527.00,0.0307
3526.00,0.0309
3525.00,0.0310
3524.00,0.0311
3523.00,0.0311
3522.00,0.0311
3521.00,0.0312
3520.00,0.0311
3519.00,0.0311
3518.00,0.0311
3517.00,0.0312
3516.00,0.0313
3515.00,0.0313
3514.00,0.0313
3513.00,0.0314
3512.00,0.0314
3511.00,0.0315
3510.00,0.0316
3509.00,0.0317
3508.00,0.0317
3507.00,0.0318
3506.00,0.0318
3505.00,0.0318
3504.00,0.0319
3503.00,0.0321
3502.00,0.0322
3501.00,0.0324
3500.00,0.0324
3499.00,0.0324
3498.00,0.0324
3497.00,0.0324
3496.00,0.0324
3495.00,0.0324
3494.00,0.0324
3493.00,0.0324
3492.00,0.0324
3491.00,0.0324
3490.00,0.0325
3489.00,0.0325
3488.00,0.0326
3487.00,0.0327
3486.00,0.0328
3485.00,0.0329
3484.00,0.0330
3483.00,0.0330
3482.00,0.0331
3481.00,0.0331
3480.00,0.0332
3479.00,0.0333
3478.00,0.0333
3477.00,0.0333
3476.00,0.0333
3475.00,0.0333
3474.00,0.0333
3473.00,0.0334
3472.00,0.0335
3471.00,0.0335
3470.00,0.0336
3469.00,0.0336
3468.00,0.0336
3467.00,0.0337
3466.00,0.0337
3465.00,0.0338
3464.00,0.0339
3463.00,0.0339
3462.00,0.0340
3461.00,0.0340
3460.00,0.0340
3459.00,0.0340
3458.00,0.0341
3457.00,0.0341
3456.00,0.0342
3455.00,0.0343
3454.00,0.0343
3453.00,0.0344
3452.00,0.0344
3451.00,0.0344
3450.00,0.0345
3449.00,0.0345
3448.00,0.0346
3447.00,0.0347
3446.00,0.0347
3445.00,0.0348
3444.00,0.0348
3443.00,0.0348
3442.00,0.0349
3441.00,0.0349
3440.00,0.0349
3439.00,0.0349
3438.00,0.0349
3437.00,0.0349
3436.00,0.0350
3435.00,0.0350
3434.00,0.0351
3433.00,0.0351
3432.00,0.0352
3431.00,0.0352
3430.00,0.0353
3429.00,0.0353
3428.00,0.0353
3427.00,0.0353
3426.00,0.0354
3425.00,0.0354
3424.00,0.0355
3423.00,0.0355
3422.00,0.0356
3421.00,0.0357
3420.00,0.0358
3419.00,0.0358
3418.00,0.0358
3417.00,0.0358
3416.00,0.0358
3415.00,0.0357
3414.00,0.0358
3413.00,0.0358
3412.00,0.0359
3411.00,0.0360
3410.00,0.0360
3409.00,0.0361
3408.00,0.0361
3407.00,0.0362
3406.00,0.0362
3405.00,0.0363
3404.00,0.0363
3403.00,0.0363
3402.00,0.0363
3401.00,0.0363
3400.00,0.0363
3399.00,0.0363
3398.00,0.0363
3397.00,0.0363
3396.00,0.0363
3395.00,0.0364
3394.00,0.0364
3393.00,0.0365
3392.00,0.0366
3391.00,0.0366
3390.00,0.0366
3389.00,0.0366
3388.00,0.0367
3387.00,0.0367
3386.00,0.0368
3385.00,0.0368
3384.00,0.0368
3383.00,0.0368
3382.00,0.0367
3381.00,0.0367
3380.00,0.0367
3379.00,0.0368
3378.00,0.0368
3377.00,0.0369
3376.00,0.0369
3375.00,0.0369
3374.00,0.0370
3373.00,0.0370
3372.00,0.0371
3371.00,0.0371
3370.00,0.0372
3369.00,0.0372
3368.00,0.0372
3367.00,0.0373
3366.00,0.0373
3365.00,0.0374
3364.00,0.0374
3363.00,0.0375
3362.00,0.0375
3361.00,0.0375
3360.00,0.0375
3359.00,0.0375
3358.00,0.0375
3357.00,0.0375
3356.00,0.0375
3355.00,0.0375
3354.00,0.0374
3353.00,0.0374
3352.00,0.0374
3351.00,0.0374
3350.00,0.0374
3349.00,0.0375
3348.00,0.0375
3347.00,0.0375
3346.00,0.0375
3345.00,0.0375
3344.00,0.0376
3343.00,0.0376
3342.00,0.0376
3341.00,0.0377
3340.00,0.0377
3339.00,0.0378
3338.00,0.0378
3337.00,0.0378
3336.00,0.0378
3335.00,0.0378
3334.00,0.0379
3333.00,0.0379
3332.00,0.0379
3331.00,0.0379
3330.00,0.0379
3329.00,0.0379
3328.00,0.0379
3327.00,0.0379
3326.00,0.0379
3325.00,0.0380
3324.00,0.0380
3323.00,0.0381
3322.00,0.0381
3321.00,0.0380
3320.00,0.0380
3319.00,0.0380
3318.00,0.0380
3317.00,0.0380
3316.00,0.0380
3315.00,0.0380
3314.00,0.0380
3313.00,0.0380
3312.00,0.0380
3311.00,0.0381
3310.00,0.0381
3309.00,0.0382
3308.00,0.0382
3307.00,0.0382
3306.00,0.0383
3305.00,0.0383
3304.00,0.0383
3303.00,0.0383
3302.00,0.0382
3301.00,0.0382
3300.00,0.0381
3299.00,0.0381
3298.00,0.0381
3297.00,0.0382
3296.00,0.0382
3295.00,0.0382
3294.00,0.0382
3293.00,0.0382
3292.00,0.0383
3291.00,0.0383
3290.00,0.0383
3289.00,0.0383
3288.00,0.0383
3287.00,0.0383
3286.00,0.0383
3285.00,0.0384
3284.00,0.0384
3283.00,0.0384
3282.00,0.0384
3281.00,0.0384
3280.00,0.0384
3279.00,0.0384
3278.00,0.0384
3277.00,0.0384
3276.00,0.0384
3275.00,0.0384
3274.00,0.0385
3273.00,0.0385
3272.00,0.0386
3271.00,0.0386
3270.00,0.0386
3269.00,0.0386
3268.00,0.0385
3267.00,0.0385
3266.00,0.0385
3265.00,0.0385
3264.00,0.0386
3263.00,0.0386
3262.00,0.0386
3261.00,0.0386
3260.00,0.0385
3259.00,0.0385
3258.00,0.0385
3257.00,0.0386
3256.00,0.0386
3255.00,0.0386
3254.00,0.0386
3253.00,0.0386
3252.00,0.0385
3251.00,0.0385
3250.00,0.0385
3249.00,0.0385
3248.00,0.0386
3247.00,0.0387
3246.00,0.0388
3245.00,0.0388
3244.00,0.0389
3243.00,0.0388
3242.00,0.0388
3241.00,0.0387
3240.00,0.0387
3239.00,0.0387
3238.00,0.0387
3237.00,0.0387
3236.00,0.0388
3235.00,0.0388
3234.00,0.0389
3233.00,0.0389
3232.00,0.0390
3231.00,0.0390
3230.00,0.0390
3229.00,0.0390
3228.00,0.0389
3227.00,0.0389
3226.00,0.0389
3225.00,0.0389
3224.00,0.0389
3223.00,0.0389
3222.00,0.0389
3221.00,0.0389
3220.00,0.0389
3219.00,0.0389
3218.00,0.0389
3217.00,0.0388
3216.00,0.0388
3215.00,0.0388
3214.00,0.0388
3213.00,0.0389
3212.00,0.0389
3211.00,0.0390
3210.00,0.0390
3209.00,0.0389
3208.00,0.0389
3207.00,0.0389
3206.00,0.0389
3205.00,0.0389
3204.00,0.0389
3203.00,0.0389
3202.00,0.0389
3201.00,0.0389
3200.00,0.0389
3199.00,0.0389
3198.00,0.0389
3197.00,0.0389
3196.00,0.0389
3195.00,0.0390
3194.00,0.0390
3193.00,0.0389
3192.00,0.0389
3191.00,0.0388
3190.00,0.0388
3189.00,0.0388
3188.00,0.0387
3187.00,0.0388
3186.00,0.0388
3185.00,0.0389
3184.00,0.0389
3183.00,0.0389
3182.00,0.0389
3181.00,0.0389
3180.00,0.0388
3179.00,0.0388
3178.00,0.0388
3177.00,0.0387
3176.00,0.0387
3175.00,0.0388
3174.00,0.0388
3173.00,0.0388
3172.00,0.0389
3171.00,0.0389
3170.00,0.0388
3169.00,0.0388
3168.00,0.0387
3167.00,0.0386
3166.00,0.0386
3165.00,0.0387
3164.00,0.0386
3163.00,0.0386
3162.00,0.0386
3161.00,0.0385
3160.00,0.0385
3159.00,0.0386
3158.00,0.0386
3157.00,0.0385
3156.00,0.0385
3155.00,0.0384
3154.00,0.0384
3153.00,0.0384
3152.00,0.0384
3151.00,0.0384
3150.00,0.0384
3149.00,0.0384
3148.00,0.0384
3147.00,0.0384
3146.00,0.0383
3145.00,0.0384
3144.00,0.0384
3143.00,0.0384
3142.00,0.0384
3141.00,0.0384
3140.00,0.0383
3139.00,0.0383
3138.00,0.0383
3137.00,0.0383
3136.00,0.0382
3135.00,0.0382
3134.00,0.0382
3133.00,0.0381
3132.00,0.0381
3131.00,0.0381
3130.00,0.0381
3129.00,0.0381
3128.00,0.0381
3127.00,0.0381
3126.00,0.0381
3125.00,0.0381
3124.00,0.0381
3123.00,0.0380
3122.00,0.0380
3121.00,0.0379
3120.00,0.0379
3119.00,0.0379
3118.00,0.0379
3117.00,0.0379
3116.00,0.0379
3115.00,0.0380
3114.00,0.0380
3113.00,0.0380
3112.00,0.0380
3111.00,0.0380
3110.00,0.0379
3109.00,0.0379
3108.00,0.0378
3107.00,0.0378
3106.00,0.0378
3105.00,0.0378
3104.00,0.0378
3103.00,0.0378
3102.00,0.0378
3101.00,0.0378
3100.00,0.0378
3099.00,0.0378
3098.00,0.0378
3097.00,0.0378
3096.00,0.0379
3095.00,0.0379
3094.00,0.0378
3093.00,0.0378
3092.00,0.0378
3091.00,0.0378
3090.00,0.0377
3089.00,0.0377
3088.00,0.0377
3087.00,0.0377
3086.00,0.0377
3085.00,0.0377
3084.00,0.0377
3083.00,0.0377
3082.00,0.0377
3081.00,0.0377
3080.00,0.0377
3079.00,0.0377
3078.00,0.0377
3077.00,0.0376
3076.00,0.0376
3075.00,0.0376
3074.00,0.0375
3073.00,0.0375
3072.00,0.0375
3071.00,0.0376
3070.00,0.0376
3069.00,0.0375
3068.00,0.0375
3067.00,0.0375
3066.00,0.0375
3065.00,0.0375
3064.00,0.0375
3063.00,0.0375
3062.00,0.0375
3061.00,0.0374
3060.00,0.0374
3059.00,0.0374
3058.00,0.0374
3057.00,0.0374
3056.00,0.0373
3055.00,0.0373
3054.00,0.0373
3053.00,0.0373
3052.00,0.0372
3051.00,0.0372
3050.00,0.0372
3049.00,0.0371
3048.00,0.0371
3047.00,0.0371
3046.00,0.0370
3045.00,0.0370
3044.00,0.0370
3043.00,0.0370
3042.00,0.0370
3041.00,0.0370
3040.00,0.0369
3039.00,0.0369
3038.00,0.0369
3037.00,0.0369
3036.00,0.0369
3035.00,0.0368
3034.00,0.0368
3033.00,0.0367
3032.00,0.0367
3031.00,0.0367
3030.00,0.0367
3029.00,0.0366
3028.00,0.0365
3027.00,0.0364
3026.00,0.0364
3025.00,0.0364
3024.00,0.0364
3023.00,0.0364
3022.00,0.0364
3021.00,0.0364
3020.00,0.0364
3019.00,0.0363
3018.00,0.0363
3017.00,0.0362
3016.00,0.0362
3015.00,0.0362
3014.00,0.0363
3013.00,0.0362
3012.00,0.0362
3011.00,0.0362
3010.00,0.0361
3009.00,0.0360
3008.00,0.0359
3007.00,0.0359
3006.00,0.0358
3005.00,0.0357
3004.00,0.0357
3003.00,0.0356
3002.00,0.0356
3001.00,0.0355
3000.00,0.0354
2999.00,0.0354
2998.00,0.0353
2997.00,0.0353
2996.00,0.0352
2995.00,0.0352
2994.00,0.0351
2993.00,0.0351
2992.00,0.0350
2991.00,0.0349
2990.00,0.0349
2989.00,0.0349
2988.00,0.0348
2987.00,0.0348
2986.00,0.0347
2985.00,0.0347
2984.00,0.0345
2983.00,0.0344
2982.00,0.0343
2981.00,0.0342
2980.00,0.0342
2979.00,0.0342
2978.00,0.0343
2977.00,0.0344
2976.00,0.0344
2975.00,0.0344
2974.00,0.0343
2973.00,0.0342
2972.00,0.0341
2971.00,0.0340
2970.00,0.0340
2969.00,0.0339
2968.00,0.0339
2967.00,0.0339
2966.00,0.0339
2965.00,0.0339
2964.00,0.0339
2963.00,0.0338
2962.00,0.0338
2961.00,0.0338
2960.00,0.0338
2959.00,0.0337
2958.00,0.0337
2957.00,0.0337
2956.00,0.0337
2955.00,0.0337
2954.00,0.0337
2953.00,0.0338
2952.00,0.0338
2951.00,0.0338
2950.00,0.0338
2949.00,0.0338
2948.00,0.0338
2947.00,0.0338
2946.00,0.0338
2945.00,0.0339
2944.00,0.0339
2943.00,0.0338
2942.00,0.0338
2941.00,0.0337
2940.00,0.0336
2939.00,0.0335
2938.00,0.0334
2937.00,0.0334
2936.00,0.0333
2935.00,0.0332
2934.00,0.0331
2933.00,0.0330
2932.00,0.0329
2931.00,0.0328
2930.00,0.0326
2929.00,0.0325
2928.00,0.0324
2927.00,0.0323
2926.00,0.0323
2925.00,0.0322
2924.00,0.0322
2923.00,0.0322
2922.00,0.0322
2921.00,0.0322
2920.00,0.0321
2919.00,0.0320
2918.00,0.0319
2917.00,0.0319
2916.00,0.0319
2915.00,0.0321
2914.00,0.0323
2913.00,0.0325
2912.00,0.0326
2911.00,0.0327
2910.00,0.0328
2909.00,0.0328
2908.00,0.0329
2907.00,0.0329
2906.00,0.0329
2905.00,0.0329
2904.00,0.0329
2903.00,0.0329
2902.00,0.0330
2901.00,0.0330
2900.00,0.0330
2899.00,0.0330
2898.00,0.0329
2897.00,0.0329
2896.00,0.0328
2895.00,0.0328
2894.00,0.0328
2893.00,0.0329
2892.00,0.0329
2891.00,0.0329
2890.00,0.0329
2889.00,0.0329
2888.00,0.0329
2887.00,0.0329
2886.00,0.0329
2885.00,0.0330
2884.00,0.0330
2883.00,0.0330
2882.00,0.0330
2881.00,0.0329
2880.00,0.0329
2879.00,0.0329
2878.00,0.0328
2877.00,0.0328
2876.00,0.0328
2875.00,0.0327
2874.00,0.0326
2873.00,0.0325
2872.00,0.0324
2871.00,0.0324
2870.00,0.0324
2869.00,0.0324
2868.00,0.0324
2867.00,0.0323
2866.00,0.0323
2865.00,0.0323
2864.00,0.0323
2863.00,0.0323
2862.00,0.0322
2861.00,0.0322
2860.00,0.0321
2859.00,0.0320
2858.00,0.0320
2857.00,0.0319
2856.00,0.0318
2855.00,0.0318
2854.00,0.0317
2853.00,0.0317
2852.00,0.0317
2851.00,0.0317
2850.00,0.0317
2849.00,0.0317
2848.00,0.0317
2847.00,0.0317
2846.00,0.0318
2845.00,0.0319
2844.00,0.0320
2843.00,0.0321
2842.00,0.0322
2841.00,0.0323
2840.00,0.0323
2839.00,0.0323
2838.00,0.0323
2837.00,0.0323
2836.00,0.0324
2835.00,0.0323
2834.00,0.0323
2833.00,0.0323
2832.00,0.0323
2831.00,0.0323
2830.00,0.0323
2829.00,0.0323
2828.00,0.0322
2827.00,0.0322
2826.00,0.0322
2825.00,0.0322
2824.00,0.0321
2823.00,0.0321
2822.00,0.0321
2821.00,0.0321
2820.00,0.0321
2819.00,0.0321
2818.00,0.0321
2817.00,0.0320
2816.00,0.0320
2815.00,0.0320
2814.00,0.0319
2813.00,0.0319
2812.00,0.0319
2811.00,0.0318
2810.00,0.0318
2809.00,0.0318
2808.00,0.0318
2807.00,0.0318
2806.00,0.0317
2805.00,0.0317
2804.00,0.0317
2803.00,0.0317
2802.00,0.0317
2801.00,0.0317
2800.00,0.0317
2799.00,0.0317
2798.00,0.0317
2797.00,0.0316
2796.00,0.0316
2795.00,0.0315
2794.00,0.0315
2793.00,0.0315
2792.00,0.0314
2791.00,0.0314
2790.00,0.0314
2789.00,0.0315
2788.00,0.0315
2787.00,0.0314
2786.00,0.0314
2785.00,0.0314
2784.00,0.0313
2783.00,0.0313
2782.00,0.0313
2781.00,0.0313
2780.00,0.0313
2779.00,0.0313
2778.00,0.0312
2777.00,0.0312
2776.00,0.0312
2775.00,0.0312
2774.00,0.0312
2773.00,0.0311
2772.00,0.0311
2771.00,0.0311
2770.00,0.0311
2769.00,0.0311
2768.00,0.0310
2767.00,0.0310
2766.00,0.0310
2765.00,0.0310
2764.00,0.0310
2763.00,0.0310
2762.00,0.0310
2761.00,0.0310
2760.00,0.0309
2759.00,0.0309
2758.00,0.0308
2757.00,0.0308
2756.00,0.0308
2755.00,0.0307
2754.00,0.0308
2753.00,0.0308
2752.00,0.0308
2751.00,0.0308
2750.00,0.0308
2749.00,0.0308
2748.00,0.0308
2747.00,0.0307
2746.00,0.0307
2745.00,0.0306
2744.00,0.0306
2743.00,0.0305
2742.00,0.0305
2741.00,0.0305
2740.00,0.0305
2739.00,0.0305
2738.00,0.0305
2737.00,0.0304
2736.00,0.0304
2735.00,0.0303
2734.00,0.0303
2733.00,0.0303
2732.00,0.0303
2731.00,0.0303
2730.00,0.0303
2729.00,0.0303
2728.00,0.0303
2727.00,0.0303
2726.00,0.0303
2725.00,0.0302
2724.00,0.0302
2723.00,0.0302
2722.00,0.0302
2721.00,0.0302
2720.00,0.0301
2719.00,0.0301
2718.00,0.0301
2717.00,0.0300
2716.00,0.0300
2715.00,0.0300
2714.00,0.0300
2713.00,0.0300
2712.00,0.0300
2711.00,0.0300
2710.00,0.0300
2709.00,0.0300
2708.00,0.0300
2707.00,0.0299
2706.00,0.0299
2705.00,0.0299
2704.00,0.0299
2703.00,0.0299
2702.00,0.0299
2701.00,0.0298
2700.00,0.0298
2699.00,0.0298
2698.00,0.0298
2697.00,0.0297
2696.00,0.0297
2695.00,0.0297
2694.00,0.0297
2693.00,0.0297
2692.00,0.0297
2691.00,0.0297
2690.00,0.0297
2689.00,0.0297
2688.00,0.0297
2687.00,0.0296
2686.00,0.0296
2685.00,0.0296
2684.00,0.0295
2683.00,0.0295
2682.00,0.0295
2681.00,0.0295
2680.00,0.0295
2679.00,0.0295
2678.00,0.0295
2677.00,0.0295
2676.00,0.0294
2675.00,0.0294
2674.00,0.0294
2673.00,0.0294
2672.00,0.0294
2671.00,0.0294
2670.00,0.0293
2669.00,0.0293
2668.00,0.0292
2667.00,0.0292
2666.00,0.0292
2665.00,0.0292
2664.00,0.0293
2663.00,0.0293
2662.00,0.0293
2661.00,0.0293
2660.00,0.0293
2659.00,0.0293
2658.00,0.0293
2657.00,0.0293
2656.00,0.0293
2655.00,0.0293
2654.00,0.0292
2653.00,0.0292
2652.00,0.0292
2651.00,0.0293
2650.00,0.0293
2649.00,0.0293
2648.00,0.0293
2647.00,0.0293
2646.00,0.0293
2645.00,0.0293
2644.00,0.0294
2643.00,0.0294
2642.00,0.0294
2641.00,0.0295
2640.00,0.0294
2639.00,0.0294
2638.00,0.0293
2637.00,0.0293
2636.00,0.0293
2635.00,0.0293
2634.00,0.0293
2633.00,0.0293
2632.00,0.0292
2631.00,0.0292
2630.00,0.0292
2629.00,0.0292
2628.00,0.0293
2627.00,0.0293
2626.00,0.0292
2625.00,0.0292
2624.00,0.0292
2623.00,0.0291
2622.00,0.0291
2621.00,0.0291
2620.00,0.0291
2619.00,0.0291
2618.00,0.0291
2617.00,0.0292
2616.00,0.0292
2615.00,0.0292
2614.00,0.0292
2613.00,0.0292
2612.00,0.0292
2611.00,0.0292
2610.00,0.0291
2609.00,0.0291
2608.00,0.0291
2607.00,0.0291
2606.00,0.0291
2605.00,0.0291
2604.00,0.0291
2603.00,0.0291
2602.00,0.0291
2601.00,0.0291
2600.00,0.0291
2599.00,0.0291
2598.00,0.0291
2597.00,0.0291
2596.00,0.0291
2595.00,0.0290
2594.00,0.0290
2593.00,0.0290
2592.00,0.0291
2591.00,0.0291
2590.00,0.0292
2589.00,0.0292
2588.00,0.0291
2587.00,0.0290
2586.00,0.0289
2585.00,0.0289
2584.00,0.0289
2583.00,0.0290
2582.00,0.0290
2581.00,0.0290
2580.00,0.0290
2579.00,0.0290
2578.00,0.0290
2577.00,0.0290
2576.00,0.0290
2575.00,0.0290
2574.00,0.0290
2573.00,0.0290
2572.00,0.0289
2571.00,0.0289
2570.00,0.0288
2569.00,0.0288
2568.00,0.0289
2567.00,0.0289
2566.00,0.0289
2565.00,0.0289
2564.00,0.0289
2563.00,0.0289
2562.00,0.0289
2561.00,0.0289
2560.00,0.0289
2559.00,0.0289
2558.00,0.0289
2557.00,0.0289
2556.00,0.0289
2555.00,0.0289
2554.00,0.0289
2553.00,0.0289
2552.00,0.0289
2551.00,0.0289
2550.00,0.0288
2549.00,0.0288
2548.00,0.0288
2547.00,0.0287
2546.00,0.0287
2545.00,0.0287
2544.00,0.0287
2543.00,0.0287
2542.00,0.0288
2541.00,0.0288
2540.00,0.0289
2539.00,0.0288
2538.00,0.0288
2537.00,0.0288
2536.00,0.0288
2535.00,0.0288
2534.00,0.0288
2533.00,0.0288
2532.00,0.0288
2531.00,0.0288
2530.00,0.0288
2529.00,0.0288
2528.00,0.0288
2527.00,0.0288
2526.00,0.0287
2525.00,0.0287
2524.00,0.0287
2523.00,0.0287
2522.00,0.0287
2521.00,0.0287
2520.00,0.0287
2519.00,0.0287
2518.00,0.0286
2517.00,0.0286
2516.00,0.0285
2515.00,0.0285
2514.00,0.0285
2513.00,0.0285
2512.00,0.0286
2511.00,0.0286
2510.00,0.0286
2509.00,0.0285
2508.00,0.0284
2507.00,0.0283
2506.00,0.0283
2505.00,0.0284
2504.00,0.0284
2503.00,0.0285
2502.00,0.0285
2501.00,0.0285
2500.00,0.0285
2499.00,0.0284
2498.00,0.0284
2497.00,0.0283
2496.00,0.0283
2495.00,0.0283
2494.00,0.0283
2493.00,0.0283
2492.00,0.0284
2491.00,0.0284
2490.00,0.0283
2489.00,0.0283
2488.00,0.0283
2487.00,0.0282
2486.00,0.0282
2485.00,0.0281
2484.00,0.0281
2483.00,0.0282
2482.00,0.0282
2481.00,0.0283
2480.00,0.0284
2479.00,0.0284
2478.00,0.0283
2477.00,0.0283
2476.00,0.0282
2475.00,0.0282
2474.00,0.0281
2473.00,0.0281
2472.00,0.0281
2471.00,0.0281
2470.00,0.0281
2469.00,0.0281
2468.00,0.0281
2467.00,0.0281
2466.00,0.0281
2465.00,0.0280
2464.00,0.0280
2463.00,0.0280
2462.00,0.0279
2461.00,0.0280
2460.00,0.0280
2459.00,0.0280
2458.00,0.0281
2457.00,0.0280
2456.00,0.0279
2455.00,0.0279
2454.00,0.0278
2453.00,0.0279
2452.00,0.0279
2451.00,0.0279
2450.00,0.0279
2449.00,0.0278
2448.00,0.0278
2447.00,0.0278
2446.00,0.0279
2445.00,0.0279
2444.00,0.0279
2443.00,0.0278
2442.00,0.0278
2441.00,0.0277
2440.00,0.0277
2439.00,0.0276
2438.00,0.0276
2437.00,0.0276
2436.00,0.0275
2435.00,0.0275
2434.00,0.0275
2433.00,0.0275
2432.00,0.0275
2431.00,0.0275
2430.00,0.0275
2429.00,0.0276
2428.00,0.0276
2427.00,0.0276
2426.00,0.0275
2425.00,0.0275
2424.00,0.0274
2423.00,0.0274
2422.00,0.0274
2421.00,0.0274
2420.00,0.0273
2419.00,0.0273
2418.00,0.0273
2417.00,0.0273
2416.00,0.0273
2415.00,0.0273
2414.00,0.0273
2413.00,0.0274
2412.00,0.0274
2411.00,0.0273
2410.00,0.0273
2409.00,0.0272
2408.00,0.0271
2407.00,0.0271
2406.00,0.0272
2405.00,0.0272
2404.00,0.0272
2403.00,0.0272
2402.00,0.0271
2401.00,0.0271
2400.00,0.0270
2399.00,0.0269
2398.00,0.0269
2397.00,0.0269
2396.00,0.0269
2395.00,0.0269
2394.00,0.0269
2393.00,0.0269
2392.00,0.0268
2391.00,0.0268
2390.00,0.0267
2389.00,0.0266
2388.00,0.0265
2387.00,0.0264
2386.00,0.0262
2385.00,0.0261
2384.00,0.0259
2383.00,0.0257
2382.00,0.0256
2381.00,0.0255
2380.00,0.0254
2379.00,0.0254
2378.00,0.0255
2377.00,0.0256
2376.00,0.0257
2375.00,0.0259
2374.00,0.0260
2373.00,0.0261
2372.00,0.0261
2371.00,0.0260
2370.00,0.0259
2369.00,0.0258
2368.00,0.0257
2367.00,0.0258
2366.00,0.0258
2365.00,0.0258
2364.00,0.0259
2363.00,0.0260
2362.00,0.0262
2361.00,0.0264
2360.00,0.0266
2359.00,0.0266
2358.00,0.0267
2357.00,0.0267
2356.00,0.0267
2355.00,0.0265
2354.00,0.0262
2353.00,0.0259
2352.00,0.0259
2351.00,0.0260
2350.00,0.0261
2349.00,0.0259
2348.00,0.0254
2347.00,0.0250
2346.00,0.0250
2345.00,0.0253
2344.00,0.0257
2343.00,0.0260
2342.00,0.0261
2341.00,0.0261
2340.00,0.0261
2339.00,0.0261
2338.00,0.0262
2337.00,0.0262
2336.00,0.0262
2335.00,0.0261
2334.00,0.0261
2333.00,0.0261
2332.00,0.0261
2331.00,0.0262
2330.00,0.0264
2329.00,0.0266
2328.00,0.0267
2327.00,0.0267
2326.00,0.0267
2325.00,0.0266
2324.00,0.0266
2323.00,0.0267
2322.00,0.0267
2321.00,0.0266
2320.00,0.0265
2319.00,0.0264
2318.00,0.0262
2317.00,0.0261
2316.00,0.0260
2315.00,0.0260
2314.00,0.0260
2313.00,0.0261
2312.00,0.0261
2311.00,0.0261
2310.00,0.0260
2309.00,0.0259
2308.00,0.0259
2307.00,0.0259
2306.00,0.0259
2305.00,0.0260
2304.00,0.0260
2303.00,0.0259
2302.00,0.0259
2301.00,0.0258
2300.00,0.0258
2299.00,0.0258
2298.00,0.0257
2297.00,0.0257
2296.00,0.0257
2295.00,0.0257
2294.00,0.0257
2293.00,0.0257
2292.00,0.0257
2291.00,0.0257
2290.00,0.0258
2289.00,0.0258
2288.00,0.0258
2287.00,0.0258
2286.00,0.0258
2285.00,0.0258
2284.00,0.0258
2283.00,0.0257
2282.00,0.0256
2281.00,0.0256
2280.00,0.0255
2279.00,0.0255
2278.00,0.0255
2277.00,0.0255
2276.00,0.0255
2275.00,0.0255
2274.00,0.0255
2273.00,0.0255
2272.00,0.0255
2271.00,0.0255
2270.00,0.0254
2269.00,0.0253
2268.00,0.0253
2267.00,0.0253
2266.00,0.0253
2265.00,0.0253
2264.00,0.0253
2263.00,0.0253
2262.00,0.0253
2261.00,0.0254
2260.00,0.0255
2259.00,0.0255
2258.00,0.0256
2257.00,0.0256
2256.00,0.0256
2255.00,0.0255
2254.00,0.0253
2253.00,0.0252
2252.00,0.0252
2251.00,0.0252
2250.00,0.0252
2249.00,0.0252
2248.00,0.0252
2247.00,0.0251
2246.00,0.0250
2245.00,0.0250
2244.00,0.0249
2243.00,0.0249
2242.00,0.0249
2241.00,0.0250
2240.00,0.0250
2239.00,0.0250
2238.00,0.0250
2237.00,0.0251
2236.00,0.0252
2235.00,0.0253
2234.00,0.0253
2233.00,0.0252
2232.00,0.0252
2231.00,0.0252
2230.00,0.0252
2229.00,0.0253
2228.00,0.0253
2227.00,0.0254
2226.00,0.0253
2225.00,0.0253
2224.00,0.0252
2223.00,0.0252
2222.00,0.0252
2221.00,0.0253
2220.00,0.0253
2219.00,0.0253
2218.00,0.0254
2217.00,0.0255
2216.00,0.0256
2215.00,0.0256
2214.00,0.0255
2213.00,0.0254
2212.00,0.0253
2211.00,0.0251
2210.00,0.0250
2209.00,0.0249
2208.00,0.0249
2207.00,0.0249
2206.00,0.0250
2205.00,0.0251
2204.00,0.0253
2203.00,0.0254
2202.00,0.0254
2201.00,0.0253
2200.00,0.0252
2199.00,0.0252
2198.00,0.0252
2197.00,0.0252
2196.00,0.0252
2195.00,0.0251
2194.00,0.0250
2193.00,0.0249
2192.00,0.0248
2191.00,0.0249
2190.00,0.0250
2189.00,0.0251
2188.00,0.0252
2187.00,0.0251
2186.00,0.0250
2185.00,0.0249
2184.00,0.0249
2183.00,0.0250
2182.00,0.0251
2181.00,0.0252
2180.00,0.0252
2179.00,0.0252
2178.00,0.0251
2177.00,0.0250
2176.00,0.0250
2175.00,0.0251
2174.00,0.0251
2173.00,0.0252
2172.00,0.0252
2171.00,0.0250
2170.00,0.0248
2169.00,0.0245
2168.00,0.0244
2167.00,0.0245
2166.00,0.0247
2165.00,0.0249
2164.00,0.0250
2163.00,0.0250
2162.00,0.0249
2161.00,0.0246
2160.00,0.0243
2159.00,0.0240
2158.00,0.0238
2157.00,0.0237
2156.00,0.0238
2155.00,0.0239
2154.00,0.0240
2153.00,0.0241
2152.00,0.0242
2151.00,0.0241
2150.00,0.0240
2149.00,0.0239
2148.00,0.0237
2147.00,0.0236
2146.00,0.0236
2145.00,0.0237
2144.00,0.0238
2143.00,0.0239
2142.00,0.0239
2141.00,0.0238
2140.00,0.0238
2139.00,0.0237
2138.00,0.0236
2137.00,0.0236
2136.00,0.0235
2135.00,0.0234
2134.00,0.0233
2133.00,0.0232
2132.00,0.0231
2131.00,0.0231
2130.00,0.0231
2129.00,0.0231
2128.00,0.0230
2127.00,0.0229
2126.00,0.0229
2125.00,0.0230
2124.00,0.0230
2123.00,0.0231
2122.00,0.0231
2121.00,0.0232
2120.00,0.0233
2119.00,0.0234
2118.00,0.0235
2117.00,0.0235
2116.00,0.0235
2115.00,0.0235
2114.00,0.0235
2113.00,0.0234
2112.00,0.0233
2111.00,0.0232
2110.00,0.0232
2109.00,0.0232
2108.00,0.0232
2107.00,0.0231
2106.00,0.0231
2105.00,0.0231
2104.00,0.0231
2103.00,0.0231
2102.00,0.0231
2101.00,0.0231
2100.00,0.0231
2099.00,0.0231
2098.00,0.0231
2097.00,0.0231
2096.00,0.0231
2095.00,0.0230
2094.00,0.0230
2093.00,0.0230
2092.00,0.0230
2091.00,0.0231
2090.00,0.0231
2089.00,0.0231
2088.00,0.0231
2087.00,0.0230
2086.00,0.0230
2085.00,0.0229
2084.00,0.0229
2083.00,0.0228
2082.00,0.0227
2081.00,0.0227
2080.00,0.0227
2079.00,0.0227
2078.00,0.0228
2077.00,0.0228
2076.00,0.0228
2075.00,0.0228
2074.00,0.0228
2073.00,0.0227
2072.00,0.0227
2071.00,0.0227
2070.00,0.0227
2069.00,0.0228
2068.00,0.0228
2067.00,0.0228
2066.00,0.0228
2065.00,0.0227
2064.00,0.0227
2063.00,0.0227
2062.00,0.0227
2061.00,0.0228
2060.00,0.0228
2059.00,0.0227
2058.00,0.0226
2057.00,0.0226
2056.00,0.0226
2055.00,0.0226
2054.00,0.0226
2053.00,0.0226
2052.00,0.0226
2051.00,0.0226
2050.00,0.0226
2049.00,0.0227
2048.00,0.0228
2047.00,0.0229
2046.00,0.0230
2045.00,0.0231
2044.00,0.0230
2043.00,0.0229
2042.00,0.0228
2041.00,0.0228
2040.00,0.0229
2039.00,0.0229
2038.00,0.0229
2037.00,0.0228
2036.00,0.0227
2035.00,0.0226
2034.00,0.0225
2033.00,0.0224
2032.00,0.0223
2031.00,0.0222
2030.00,0.0222
2029.00,0.0223
2028.00,0.0224
2027.00,0.0224
2026.00,0.0223
2025.00,0.0223
2024.00,0.0222
2023.00,0.0222
2022.00,0.0221
2021.00,0.0222
2020.00,0.0223
2019.00,0.0223
2018.00,0.0223
2017.00,0.0221
2016.00,0.0220
2015.00,0.0220
2014.00,0.0221
2013.00,0.0222
2012.00,0.0221
2011.00,0.0219
2010.00,0.0217
2009.00,0.0216
2008.00,0.0215
2007.00,0.0215
2006.00,0.0215
2005.00,0.0216
2004.00,0.0217
2003.00,0.0218
2002.00,0.0219
2001.00,0.0219
2000.00,0.0219
1999.00,0.0218
1998.00,0.0218
1997.00,0.0218
1996.00,0.0219
1995.00,0.0219
1994.00,0.0219
1993.00,0.0219
1992.00,0.0218
1991.00,0.0217
1990.00,0.0217
1989.00,0.0217
1988.00,0.0216
1987.00,0.0215
1986.00,0.0214
1985.00,0.0214
1984.00,0.0214
1983.00,0.0215
1982.00,0.0217
1981.00,0.0219
1980.00,0.0219
1979.00,0.0217
1978.00,0.0216
1977.00,0.0216
1976.00,0.0215
1975.00,0.0215
1974.00,0.0214
1973.00,0.0214
1972.00,0.0214
1971.00,0.0214
1970.00,0.0215
1969.00,0.0216
1968.00,0.0215
1967.00,0.0213
1966.00,0.0211
1965.00,0.0210
1964.00,0.0211
1963.00,0.0211
1962.00,0.0212
1961.00,0.0211
1960.00,0.0209
1959.00,0.0207
1958.00,0.0205
1957.00,0.0204
1956.00,0.0202
1955.00,0.0201
1954.00,0.0201
1953.00,0.0202
1952.00,0.0202
1951.00,0.0202
1950.00,0.0201
1949.00,0.0201
1948.00,0.0201
1947.00,0.0201
1946.00,0.0202
1945.00,0.0203
1944.00,0.0203
1943.00,0.0202
1942.00,0.0201
1941.00,0.0200
1940.00,0.0200
1939.00,0.0199
1938.00,0.0199
1937.00,0.0199
1936.00,0.0199
1935.00,0.0199
1934.00,0.0198
1933.00,0.0198
1932.00,0.0198
1931.00,0.0197
1930.00,0.0197
1929.00,0.0198
1928.00,0.0197
1927.00,0.0197
1926.00,0.0198
1925.00,0.0199
1924.00,0.0200
1923.00,0.0198
1922.00,0.0196
1921.00,0.0195
1920.00,0.0195
1919.00,0.0194
1918.00,0.0191
1917.00,0.0190
1916.00,0.0189
1915.00,0.0189
1914.00,0.0189
1913.00,0.0190
1912.00,0.0191
1911.00,0.0190
1910.00,0.0190
1909.00,0.0189
1908.00,0.0188
1907.00,0.0187
1906.00,0.0186
1905.00,0.0187
1904.00,0.0188
1903.00,0.0187
1902.00,0.0186
1901.00,0.0185
1900.00,0.0184
1899.00,0.0183
1898.00,0.0183
1897.00,0.0184
1896.00,0.0184
1895.00,0.0184
1894.00,0.0184
1893.00,0.0184
1892.00,0.0184
1891.00,0.0183
1890.00,0.0181
1889.00,0.0179
1888.00,0.0177
1887.00,0.0177
1886.00,0.0177
1885.00,0.0178
1884.00,0.0177
1883.00,0.0177
1882.00,0.0177
1881.00,0.0177
1880.00,0.0177
1879.00,0.0176
1878.00,0.0175
1877.00,0.0174
1876.00,0.0174
1875.00,0.0173
1874.00,0.0173
1873.00,0.0175
1872.00,0.0177
1871.00,0.0177
1870.00,0.0176
1869.00,0.0172
1868.00,0.0170
1867.00,0.0169
1866.00,0.0169
1865.00,0.0170
1864.00,0.0169
1863.00,0.0168
1862.00,0.0168
1861.00,0.0167
1860.00,0.0167
1859.00,0.0167
1858.00,0.0167
1857.00,0.0167
1856.00,0.0167
1855.00,0.0167
1854.00,0.0166
1853.00,0.0165
1852.00,0.0164
1851.00,0.0163
1850.00,0.0163
1849.00,0.0164
1848.00,0.0164
1847.00,0.0165
1846.00,0.0164
1845.00,0.0162
1844.00,0.0158
1843.00,0.0156
1842.00,0.0157
1841.00,0.0159
1840.00,0.0160
1839.00,0.0160
1838.00,0.0159
1837.00,0.0157
1836.00,0.0156
1835.00,0.0156
1834.00,0.0157
1833.00,0.0159
1832.00,0.0161
1831.00,0.0160
1830.00,0.0157
1829.00,0.0155
1828.00,0.0155
1827.00,0.0155
1826.00,0.0155
1825.00,0.0153
1824.00,0.0151
1823.00,0.0149
1822.00,0.0149
1821.00,0.0149
1820.00,0.0148
1819.00,0.0148
1818.00,0.0147
1817.00,0.0146
1816.00,0.0146
1815.00,0.0147
1814.00,0.0147
1813.00,0.0147
1812.00,0.0147
1811.00,0.0145
1810.00,0.0143
1809.00,0.0143
1808.00,0.0143
1807.00,0.0143
1806.00,0.0144
1805.00,0.0146
1804.00,0.0147
1803.00,0.0148
1802.00,0.0148
1801.00,0.0146
1800.00,0.0145
1799.00,0.0143
1798.00,0.0143
1797.00,0.0144
1796.00,0.0145
1795.00,0.0147
1794.00,0.0147
1793.00,0.0145
1792.00,0.0143
1791.00,0.0142
1790.00,0.0143
1789.00,0.0144
1788.00,0.0146
1787.00,0.0147
1786.00,0.0147
1785.00,0.0148
1784.00,0.0150
1783.00,0.0153
1782.00,0.0154
1781.00,0.0155
1780.00,0.0155
1779.00,0.0156
1778.00,0.0158
1777.00,0.0161
1776.00,0.0164
1775.00,0.0168
1774.00,0.0169
1773.00,0.0168
1772.00,0.0166
1771.00,0.0167
1770.00,0.0168
1769.00,0.0170
1768.00,0.0172
1767.00,0.0173
1766.00,0.0175
1765.00,0.0179
1764.00,0.0183
1763.00,0.0184
1762.00,0.0184
1761.00,0.0184
1760.00,0.0186
1759.00,0.0188
1758.00,0.0190
1757.00,0.0189
1756.00,0.0189
1755.00,0.0191
1754.00,0.0194
1753.00,0.0196
1752.00,0.0198
1751.00,0.0199
1750.00,0.0202
1749.00,0.0204
1748.00,0.0206
1747.00,0.0209
1746.00,0.0213
1745.00,0.0216
1744.00,0.0219
1743.00,0.0222
1742.00,0.0225
1741.00,0.0227
1740.00,0.0228
1739.00,0.0230
1738.00,0.0234
1737.00,0.0240
1736.00,0.0245
1735.00,0.0246
1734.00,0.0246
1733.00,0.0251
1732.00,0.0257
1731.00,0.0262
1730.00,0.0266
1729.00,0.0270
1728.00,0.0273
1727.00,0.0276
1726.00,0.0279
1725.00,0.0283
1724.00,0.0286
1723.00,0.0290
1722.00,0.0294
1721.00,0.0299
1720.00,0.0305
1719.00,0.0307
1718.00,0.0305
1717.00,0.0307
1716.00,0.0310
1715.00,0.0312
1714.00,0.0315
1713.00,0.0317
1712.00,0.0319
1711.00,0.0320
1710.00,0.0322
1709.00,0.0325
1708.00,0.0328
1707.00,0.0331
1706.00,0.0332
1705.00,0.0334
1704.00,0.0335
1703.00,0.0338
1702.00,0.0340
1701.00,0.0339
1700.00,0.0338
1699.00,0.0337
1698.00,0.0340
1697.00,0.0343
1696.00,0.0344
1695.00,0.0342
1694.00,0.0342
1693.00,0.0344
1692.00,0.0347
1691.00,0.0348
1690.00,0.0349
1689.00,0.0351
1688.00,0.0353
1687.00,0.0358
1686.00,0.0361
1685.00,0.0361
1684.00,0.0363
1683.00,0.0365
1682.00,0.0366
1681.00,0.0368
1680.00,0.0369
1679.00,0.0370
1678.00,0.0372
1677.00,0.0374
1676.00,0.0375
1675.00,0.0378
1674.00,0.0381
1673.00,0.0385
1672.00,0.0389
1671.00,0.0391
1670.00,0.0395
1669.00,0.0398
1668.00,0.0401
1667.00,0.0403
1666.00,0.0405
1665.00,0.0407
1664.00,0.0409
1663.00,0.0411
1662.00,0.0414
1661.00,0.0417
1660.00,0.0419
1659.00,0.0421
1658.00,0.0423
1657.00,0.0426
1656.00,0.0432
1655.00,0.0438
1654.00,0.0442
1653.00,0.0448
1652.00,0.0450
1651.00,0.0448
1650.00,0.0449
1649.00,0.0451
1648.00,0.0453
1647.00,0.0456
1646.00,0.0461
1645.00,0.0465
1644.00,0.0467
1643.00,0.0468
1642.00,0.0470
1641.00,0.0472
1640.00,0.0475
1639.00,0.0477
1638.00,0.0480
1637.00,0.0484
1636.00,0.0491
1635.00,0.0498
1634.00,0.0501
1633.00,0.0503
1632.00,0.0504
1631.00,0.0506
1630.00,0.0510
1629.00,0.0514
1628.00,0.0518
1627.00,0.0522
1626.00,0.0525
1625.00,0.0528
1624.00,0.0532
1623.00,0.0537
1622.00,0.0541
1621.00,0.0543
1620.00,0.0545
1619.00,0.0547
1618.00,0.0550
1617.00,0.0554
1616.00,0.0559
1615.00,0.0563
1614.00,0.0564
1613.00,0.0566
1612.00,0.0567
1611.00,0.0569
1610.00,0.0572
1609.00,0.0576
1608.00,0.0579
1607.00,0.0581
1606.00,0.0583
1605.00,0.0585
1604.00,0.0587
1603.00,0.0590
1602.00,0.0593
1601.00,0.0595
1600.00,0.0597
1599.00,0.0599
1598.00,0.0600
1597.00,0.0602
1596.00,0.0603
1595.00,0.0605
1594.00,0.0607
1593.00,0.0608
1592.00,0.0609
1591.00,0.0610
1590.00,0.0612
1589.00,0.0614
1588.00,0.0614
1587.00,0.0615
1586.00,0.0616
1585.00,0.0616
1584.00,0.0616
1583.00,0.0617
1582.00,0.0618
1581.00,0.0619
1580.00,0.0619
1579.00,0.0619
1578.00,0.0620
1577.00,0.0621
1576.00,0.0622
1575.00,0.0624
1574.00,0.0624
1573.00,0.0622
1572.00,0.0621
1571.00,0.0620
1570.00,0.0621
1569.00,0.0622
1568.00,0.0621
1567.00,0.0620
1566.00,0.0618
1565.00,0.0616
1564.00,0.0615
1563.00,0.0613
1562.00,0.0613
1561.00,0.0613
1560.00,0.0611
1559.00,0.0615
1558.00,0.0619
1557.00,0.0614
1556.00,0.0606
1555.00,0.0602
1554.00,0.0599
1553.00,0.0597
1552.00,0.0595
1551.00,0.0593
1550.00,0.0591
1549.00,0.0588
1548.00,0.0584
1547.00,0.0580
1546.00,0.0577
1545.00,0.0574
1544.00,0.0572
1543.00,0.0569
1542.00,0.0564
1541.00,0.0560
1540.00,0.0563
1539.00,0.0565
1538.00,0.0561
1537.00,0.0556
1536.00,0.0552
1535.00,0.0549
1534.00,0.0548
1533.00,0.0547
1532.00,0.0545
1531.00,0.0541
1530.00,0.0537
1529.00,0.0533
1528.00,0.0530
1527.00,0.0527
1526.00,0.0525
1525.00,0.0522
1524.00,0.0521
1523.00,0.0518
1522.00,0.0514
1521.00,0.0514
1520.00,0.0515
1519.00,0.0515
1518.00,0.0513
1517.00,0.0510
1516.00,0.0507
1515.00,0.0503
1514.00,0.0498
1513.00,0.0495
1512.00,0.0494
1511.00,0.0494
1510.00,0.0496
1509.00,0.0497
1508.00,0.0496
1507.00,0.0494
1506.00,0.0492
1505.00,0.0486
1504.00,0.0481
1503.00,0.0478
1502.00,0.0475
1501.00,0.0473
1500.00,0.0471
1499.00,0.0469
1498.00,0.0466
1497.00,0.0466
1496.00,0.0467
1495.00,0.0469
1494.00,0.0469
1493.00,0.0469
1492.00,0.0470
1491.00,0.0471
1490.00,0.0473
1489.00,0.0475
1488.00,0.0476
1487.00,0.0474
1486.00,0.0472
1485.00,0.0470
1484.00,0.0469
1483.00,0.0468
1482.00,0.0468
1481.00,0.0468
1480.00,0.0468
1479.00,0.0468
1478.00,0.0468
1477.00,0.0469
1476.00,0.0469
1475.00,0.0469
1474.00,0.0467
1473.00,0.0467
1472.00,0.0470
1471.00,0.0471
1470.00,0.0470
1469.00,0.0470
1468.00,0.0470
1467.00,0.0470
1466.00,0.0470
1465.00,0.0471
1464.00,0.0472
1463.00,0.0472
1462.00,0.0472
1461.00,0.0473
1460.00,0.0474
1459.00,0.0473
1458.00,0.0470
1457.00,0.0471
1456.00,0.0475
1455.00,0.0477
1454.00,0.0478
1453.00,0.0479
1452.00,0.0480
1451.00,0.0481
1450.00,0.0482
1449.00,0.0484
1448.00,0.0486
1447.00,0.0488
1446.00,0.0488
1445.00,0.0488
1444.00,0.0489
1443.00,0.0490
1442.00,0.0490
1441.00,0.0491
1440.00,0.0491
1439.00,0.0491
1438.00,0.0491
1437.00,0.0493
1436.00,0.0496
1435.00,0.0499
1434.00,0.0500
1433.00,0.0500
1432.00,0.0501
1431.00,0.0503
1430.00,0.0504
1429.00,0.0505
1428.00,0.0506
1427.00,0.0507
1426.00,0.0507
1425.00,0.0508
1424.00,0.0510
1423.00,0.0511
1422.00,0.0511
1421.00,0.0511
1420.00,0.0512
1419.00,0.0515
1418.00,0.0517
1417.00,0.0518
1416.00,0.0518
1415.00,0.0519
1414.00,0.0518
1413.00,0.0518
1412.00,0.0519
1411.00,0.0520
1410.00,0.0520
1409.00,0.0521
1408.00,0.0522
1407.00,0.0523
1406.00,0.0525
1405.00,0.0527
1404.00,0.0528
1403.00,0.0530
1402.00,0.0530
1401.00,0.0530
1400.00,0.0531
1399.00,0.0533
1398.00,0.0535
1397.00,0.0536
1396.00,0.0537
1395.00,0.0539
1394.00,0.0541
1393.00,0.0541
1392.00,0.0540
1391.00,0.0540
1390.00,0.0541
1389.00,0.0542
1388.00,0.0544
1387.00,0.0547
1386.00,0.0549
1385.00,0.0550
1384.00,0.0550
1383.00,0.0550
1382.00,0.0551
1381.00,0.0552
1380.00,0.0553
1379.00,0.0554
1378.00,0.0555
1377.00,0.0556
1376.00,0.0558
1375.00,0.0560
1374.00,0.0562
1373.00,0.0562
1372.00,0.0562
1371.00,0.0562
1370.00,0.0562
1369.00,0.0562
1368.00,0.0562
1367.00,0.0561
1366.00,0.0561
1365.00,0.0560
1364.00,0.0561
1363.00,0.0562
1362.00,0.0564
1361.00,0.0564
1360.00,0.0563
1359.00,0.0562
1358.00,0.0561
1357.00,0.0559
1356.00,0.0558
1355.00,0.0557
1354.00,0.0557
1353.00,0.0557
1352.00,0.0556
1351.00,0.0555
1350.00,0.0554
1349.00,0.0553
1348.00,0.0553
1347.00,0.0552
1346.00,0.0551
1345.00,0.0551
1344.00,0.0550
1343.00,0.0549
1342.00,0.0549
1341.00,0.0550
1340.00,0.0550
1339.00,0.0551
1338.00,0.0550
1337.00,0.0549
1336.00,0.0548
1335.00,0.0546
1334.00,0.0544
1333.00,0.0543
1332.00,0.0542
1331.00,0.0542
1330.00,0.0541
1329.00,0.0541
1328.00,0.0540
1327.00,0.0539
1326.00,0.0539
1325.00,0.0538
1324.00,0.0538
1323.00,0.0538
1322.00,0.0537
1321.00,0.0537
1320.00,0.0536
1319.00,0.0536
1318.00,0.0536
1317.00,0.0537
1316.00,0.0537
1315.00,0.0537
1314.00,0.0537
1313.00,0.0537
1312.00,0.0536
1311.00,0.0535
1310.00,0.0535
1309.00,0.0534
1308.00,0.0534
1307.00,0.0534
1306.00,0.0534
1305.00,0.0534
1304.00,0.0535
1303.00,0.0535
1302.00,0.0535
1301.00,0.0535
1300.00,0.0535
1299.00,0.0536
1298.00,0.0536
1297.00,0.0536
1296.00,0.0536
1295.00,0.0537
1294.00,0.0537
1293.00,0.0538
1292.00,0.0539
1291.00,0.0539
1290.00,0.0540
1289.00,0.0541
1288.00,0.0542
1287.00,0.0543
1286.00,0.0543
1285.00,0.0544
1284.00,0.0544
1283.00,0.0544
1282.00,0.0545
1281.00,0.0545
1280.00,0.0547
1279.00,0.0548
1278.00,0.0549
1277.00,0.0549
1276.00,0.0550
1275.00,0.0550
1274.00,0.0551
1273.00,0.0551
1272.00,0.0551
1271.00,0.0552
1270.00,0.0552
1269.00,0.0553
1268.00,0.0553
1267.00,0.0553
1266.00,0.0553
1265.00,0.0552
1264.00,0.0552
1263.00,0.0551
1262.00,0.0551
1261.00,0.0552
1260.00,0.0553
1259.00,0.0553
1258.00,0.0554
1257.00,0.0554
1256.00,0.0555
1255.00,0.0555
1254.00,0.0556
1253.00,0.0556
1252.00,0.0557
1251.00,0.0557
1250.00,0.0558
1249.00,0.0558
1248.00,0.0558
1247.00,0.0558
1246.00,0.0557
1245.00,0.0557
1244.00,0.0557
1243.00,0.0556
1242.00,0.0556
1241.00,0.0555
1240.00,0.0555
1239.00,0.0555
1238.00,0.0555
1237.00,0.0554
1236.00,0.0554
1235.00,0.0553
1234.00,0.0552
1233.00,0.0551
1232.00,0.0551
1231.00,0.0551
1230.00,0.0550
1229.00,0.0550
1228.00,0.0549
1227.00,0.0549
1226.00,0.0548
1225.00,0.0548
1224.00,0.0547
1223.00,0.0546
1222.00,0.0545
1221.00,0.0544
1220.00,0.0543
1219.00,0.0541
1218.00,0.0541
1217.00,0.0540
1216.00,0.0539
1215.00,0.0537
1214.00,0.0536
1213.00,0.0535
1212.00,0.0534
1211.00,0.0533
1210.00,0.0533
1209.00,0.0532
1208.00,0.0531
1207.00,0.0530
1206.00,0.0529
1205.00,0.0529
1204.00,0.0528
1203.00,0.0528
1202.00,0.0527
1201.00,0.0525
1200.00,0.0524
1199.00,0.0523
1198.00,0.0522
1197.00,0.0521
1196.00,0.0520
1195.00,0.0519
1194.00,0.0519
1193.00,0.0518
1192.00,0.0518
1191.00,0.0517
1190.00,0.0516
1189.00,0.0516
1188.00,0.0515
1187.00,0.0515
1186.00,0.0514
1185.00,0.0514
1184.00,0.0513
1183.00,0.0511
1182.00,0.0510
1181.00,0.0508
1180.00,0.0508
1179.00,0.0508
1178.00,0.0508
1177.00,0.0507
1176.00,0.0506
1175.00,0.0505
1174.00,0.0504
1173.00,0.0503
1172.00,0.0501
1171.00,0.0500
1170.00,0.0500
1169.00,0.0500
1168.00,0.0500
1167.00,0.0500
1166.00,0.0500
1165.00,0.0499
1164.00,0.0498
1163.00,0.0498
1162.00,0.0497
1161.00,0.0496
1160.00,0.0495
1159.00,0.0494
1158.00,0.0493
1157.00,0.0492
1156.00,0.0491
1155.00,0.0491
1154.00,0.0490
1153.00,0.0490
1152.00,0.0489
1151.00,0.0489
1150.00,0.0488
1149.00,0.0488
1148.00,0.0488
1147.00,0.0488
1146.00,0.0488
1145.00,0.0488
1144.00,0.0486
1143.00,0.0484
1142.00,0.0483
1141.00,0.0482
1140.00,0.0482
1139.00,0.0482
1138.00,0.0483
1137.00,0.0482
1136.00,0.0482
1135.00,0.0482
1134.00,0.0482
1133.00,0.0482
1132.00,0.0482
1131.00,0.0482
1130.00,0.0481
1129.00,0.0481
1128.00,0.0482
1127.00,0.0482
1126.00,0.0483
1125.00,0.0483
1124.00,0.0483
1123.00,0.0482
1122.00,0.0482
1121.00,0.0483
1120.00,0.0483
1119.00,0.0484
1118.00,0.0485
1117.00,0.0485
1116.00,0.0485
1115.00,0.0485
1114.00,0.0485
1113.00,0.0484
1112.00,0.0482
1111.00,0.0482
1110.00,0.0482
1109.00,0.0483
1108.00,0.0484
1107.00,0.0484
1106.00,0.0486
1105.00,0.0487
1104.00,0.0489
1103.00,0.0490
1102.00,0.0490
1101.00,0.0489
1100.00,0.0488
1099.00,0.0487
1098.00,0.0487
1097.00,0.0487
1096.00,0.0486
1095.00,0.0486
1094.00,0.0487
1093.00,0.0487
1092.00,0.0488
1091.00,0.0489
1090.00,0.0489
1089.00,0.0489
1088.00,0.0490
1087.00,0.0490
1086.00,0.0491
1085.00,0.0491
1084.00,0.0491
1083.00,0.0492
1082.00,0.0492
1081.00,0.0492
1080.00,0.0492
1079.00,0.0492
1078.00,0.0493
1077.00,0.0494
1076.00,0.0494
1075.00,0.0494
1074.00,0.0494
1073.00,0.0495
1072.00,0.0495
1071.00,0.0496
1070.00,0.0496
1069.00,0.0496
1068.00,0.0497
1067.00,0.0497
1066.00,0.0498
1065.00,0.0499
1064.00,0.0500
1063.00,0.0499
1062.00,0.0499
1061.00,0.0498
1060.00,0.0498
1059.00,0.0499
1058.00,0.0499
1057.00,0.0500
1056.00,0.0499
1055.00,0.0499
1054.00,0.0500
1053.00,0.0501
1052.00,0.0502
1051.00,0.0504
1050.00,0.0506
1049.00,0.0508
1048.00,0.0508
1047.00,0.0509
1046.00,0.0509
1045.00,0.0509
1044.00,0.0509
1043.00,0.0510
1042.00,0.0510
1041.00,0.0510
1040.00,0.0511
1039.00,0.0511
1038.00,0.0511
1037.00,0.0511
1036.00,0.0511
1035.00,0.0512
1034.00,0.0513
1033.00,0.0513
1032.00,0.0513
1031.00,0.0512
1030.00,0.0510
1029.00,0.0508
1028.00,0.0506
1027.00,0.0505
1026.00,0.0503
1025.00,0.0502
1024.00,0.0501
1023.00,0.0501
1022.00,0.0501
1021.00,0.0500
1020.00,0.0500
1019.00,0.0500
1018.00,0.0499
1017.00,0.0498
1016.00,0.0498
1015.00,0.0497
1014.00,0.0497
1013.00,0.0497
1012.00,0.0498
1011.00,0.0499
1010.00,0.0500
1009.00,0.0500
1008.00,0.0500
1007.00,0.0500
1006.00,0.0500
1005.00,0.0499
1004.00,0.0499
1003.00,0.0499
1002.00,0.0498
1001.00,0.0497
1000.00,0.0496
999.00,0.0495
998.00,0.0494
997.00,0.0492
996.00,0.0490
995.00,0.0487
994.00,0.0486
993.00,0.0486
992.00,0.0486
991.00,0.0486
990.00,0.0485
989.00,0.0484
988.00,0.0483
987.00,0.0482
986.00,0.0481
985.00,0.0481
984.00,0.0480
983.00,0.0480
982.00,0.0480
981.00,0.0479
980.00,0.0478
979.00,0.0478
978.00,0.0477
977.00,0.0477
976.00,0.0476
975.00,0.0475
974.00,0.0474
973.00,0.0473
972.00,0.0472
971.00,0.0472
970.00,0.0473
969.00,0.0473
968.00,0.0472
967.00,0.0472
966.00,0.0471
965.00,0.0471
964.00,0.0470
963.00,0.0470
962.00,0.0469
961.00,0.0469
960.00,0.0469
959.00,0.0469
958.00,0.0468
957.00,0.0467
956.00,0.0467
955.00,0.0468
954.00,0.0469
953.00,0.0469
952.00,0.0469
951.00,0.0468
950.00,0.0468
949.00,0.0468
948.00,0.0469
947.00,0.0470
946.00,0.0472
945.00,0.0474
944.00,0.0475
943.00,0.0476
942.00,0.0476
941.00,0.0477
940.00,0.0478
939.00,0.0479
938.00,0.0479
937.00,0.0478
936.00,0.0479
935.00,0.0480
934.00,0.0481
933.00,0.0482
932.00,0.0483
931.00,0.0484
930.00,0.0484
929.00,0.0485
928.00,0.0486
927.00,0.0487
926.00,0.0489
925.00,0.0490
924.00,0.0491
923.00,0.0493
922.00,0.0494
921.00,0.0496
920.00,0.0497
919.00,0.0499
918.00,0.0501
917.00,0.0502
916.00,0.0503
915.00,0.0504
914.00,0.0504
913.00,0.0504
912.00,0.0504
911.00,0.0506
910.00,0.0506
909.00,0.0507
908.00,0.0507
907.00,0.0507
906.00,0.0506
905.00,0.0506
904.00,0.0506
903.00,0.0506
902.00,0.0506
901.00,0.0507
900.00,0.0507
899.00,0.0507
898.00,0.0507
897.00,0.0506
896.00,0.0506
895.00,0.0506
894.00,0.0507
893.00,0.0509
892.00,0.0511
891.00,0.0512
890.00,0.0512
889.00,0.0511
888.00,0.0510
887.00,0.0509
886.00,0.0510
885.00,0.0512
884.00,0.0513
883.00,0.0514
882.00,0.0514
881.00,0.0514
880.00,0.0513
879.00,0.0513
878.00,0.0513
877.00,0.0514
876.00,0.0514
875.00,0.0514
874.00,0.0514
873.00,0.0514
872.00,0.0514
871.00,0.0513
870.00,0.0513
869.00,0.0513
868.00,0.0513
867.00,0.0513
866.00,0.0512
865.00,0.0513
864.00,0.0513
863.00,0.0514
862.00,0.0515
861.00,0.0516
860.00,0.0517
859.00,0.0518
858.00,0.0519
857.00,0.0520
856.00,0.0522
855.00,0.0523
854.00,0.0524
853.00,0.0525
852.00,0.0526
851.00,0.0527
850.00,0.0528
849.00,0.0529
848.00,0.0531
847.00,0.0532
846.00,0.0534
845.00,0.0535
844.00,0.0537
843.00,0.0539
842.00,0.0542
841.00,0.0544
840.00,0.0546
839.00,0.0548
838.00,0.0550
837.00,0.0552
836.00,0.0554
835.00,0.0556
834.00,0.0556
833.00,0.0557
832.00,0.0560
831.00,0.0563
830.00,0.0566
829.00,0.0568
828.00,0.0568
827.00,0.0567
826.00,0.0566
825.00,0.0565
824.00,0.0566
823.00,0.0568
822.00,0.0570
821.00,0.0572
820.00,0.0573
819.00,0.0575
818.00,0.0576
817.00,0.0576
816.00,0.0575
815.00,0.0573
814.00,0.0572
813.00,0.0571
812.00,0.0571
811.00,0.0573
810.00,0.0575
809.00,0.0578
808.00,0.0580
807.00,0.0581
806.00,0.0582
805.00,0.0583
804.00,0.0583
803.00,0.0583
802.00,0.0584
801.00,0.0585
800.00,0.0587
799.00,0.0588
798.00,0.0587
797.00,0.0586
796.00,0.0588
795.00,0.0591
794.00,0.0594
793.00,0.0598
792.00,0.0600
791.00,0.0602
790.00,0.0603
789.00,0.0604
788.00,0.0606
787.00,0.0607
786.00,0.0608
785.00,0.0610
784.00,0.0611
783.00,0.0613
782.00,0.0614
781.00,0.0614
780.00,0.0614
779.00,0.0615
778.00,0.0616
777.00,0.0618
776.00,0.0620
775.00,0.0623
774.00,0.0626
773.00,0.0628
772.00,0.0630
771.00,0.0630
770.00,0.0630
769.00,0.0630
768.00,0.0630
767.00,0.0630
766.00,0.0631
765.00,0.0633
764.00,0.0635
763.00,0.0637
762.00,0.0638
761.00,0.0638
760.00,0.0640
759.00,0.0643
758.00,0.0646
757.00,0.0648
756.00,0.0648
755.00,0.0648
754.00,0.0647
753.00,0.0648
752.00,0.0649
751.00,0.0650
750.00,0.0651
749.00,0.0651
748.00,0.0652
747.00,0.0653
746.00,0.0654
745.00,0.0655
744.00,0.0656
743.00,0.0658
742.00,0.0658
741.00,0.0656
740.00,0.0654
739.00,0.0653
738.00,0.0652
737.00,0.0653
736.00,0.0654
735.00,0.0654
734.00,0.0654
733.00,0.0654
732.00,0.0654
731.00,0.0656
730.00,0.0656
729.00,0.0658
728.00,0.0659
727.00,0.0661
726.00,0.0662
725.00,0.0663
724.00,0.0664
723.00,0.0665
722.00,0.0665
721.00,0.0667
720.00,0.0669
719.00,0.0671
718.00,0.0672
717.00,0.0673
716.00,0.0674
715.00,0.0676
714.00,0.0679
713.00,0.0683
712.00,0.0688
711.00,0.0691
710.00,0.0692
709.00,0.0692
708.00,0.0692
707.00,0.0693
706.00,0.0696
705.00,0.0700
704.00,0.0704
703.00,0.0706
702.00,0.0705
701.00,0.0704
700.00,0.0705
699.00,0.0708
698.00,0.0710
697.00,0.0712
696.00,0.0712
695.00,0.0713
694.00,0.0712
693.00,0.0711
692.00,0.0711
691.00,0.0713
690.00,0.0717
689.00,0.0720
688.00,0.0722
687.00,0.0722
686.00,0.0721
685.00,0.0722
684.00,0.0724
683.00,0.0727
682.00,0.0730
681.00,0.0732
680.00,0.0734
679.00,0.0735
678.00,0.0737
677.00,0.0741
676.00,0.0744
675.00,0.0747
674.00,0.0748
673.00,0.0748
672.00,0.0748
671.00,0.0747
670.00,0.0747
669.00,0.0755
668.00,0.0773
667.00,0.0784
666.00,0.0781
665.00,0.0773
664.00,0.0765
663.00,0.0758
662.00,0.0755
661.00,0.0760
660.00,0.0771
659.00,0.0784
658.00,0.0792
657.00,0.0793
656.00,0.0790
655.00,0.0787
654.00,0.0785
653.00,0.0785
652.00,0.0786
651.00,0.0788
650.00,0.0789
