Created as New Dataset,Monday, April 03 2023
cm-1,A
4000.00,0.0062
3999.00,0.0062
3998.00,0.0062
3997.00,0.0062
3996.00,0.0062
3995.00,0.0062
3994.00,0.0062
3993.00,0.0062
3992.00,0.0062
3991.00,0.0062
3990.00,0.0062
3989.00,0.0061
3988.00,0.0061
3987.00,0.0061
3986.00,0.0061
3985.00,0.0061
3984.00,0.0061
3983.00,0.0061
3982.00,0.0061
3981.00,0.0061
3980.00,0.0062
3979.00,0.0062
3978.00,0.0062
3977.00,0.0061
3976.00,0.0061
3975.00,0.0061
3974.00,0.0061
3973.00,0.0061
3972.00,0.0061
3971.00,0.0061
3970.00,0.0061
3969.00,0.0061
3968.00,0.0061
3967.00,0.0061
3966.00,0.0061
3965.00,0.0061
3964.00,0.0061
3963.00,0.0061
3962.00,0.0061
3961.00,0.0061
3960.00,0.0061
3959.00,0.0061
3958.00,0.0061
3957.00,0.0061
3956.00,0.0060
3955.00,0.0060
3954.00,0.0060
3953.00,0.0060
3952.00,0.0060
3951.00,0.0061
3950.00,0.0061
3949.00,0.0061
3948.00,0.0061
3947.00,0.0061
3946.00,0.0061
3945.00,0.0060
3944.00,0.0059
3943.00,0.0059
3942.00,0.0059
3941.00,0.0060
3940.00,0.0060
3939.00,0.0061
3938.00,0.0061
3937.00,0.0061
3936.00,0.0061
3935.00,0.0061
3934.00,0.0062
3933.00,0.0062
3932.00,0.0061
3931.00,0.0061
3930.00,0.0060
3929.00,0.0060
3928.00,0.0059
3927.00,0.0059
3926.00,0.0058
3925.00,0.0058
3924.00,0.0058
3923.00,0.0059
3922.00,0.0059
3921.00,0.0060
3920.00,0.0061
3919.00,0.0061
3918.00,0.0061
3917.00,0.0061
3916.00,0.0060
3915.00,0.0060
3914.00,0.0059
3913.00,0.0059
3912.00,0.0059
3911.00,0.0059
3910.00,0.0059
3909.00,0.0060
3908.00,0.0060
3907.00,0.0061
3906.00,0.0062
3905.00,0.0063
3904.00,0.0064
3903.00,0.0064
3902.00,0.0064
3901.00,0.0063
3900.00,0.0062
3899.00,0.0062
3898.00,0.0061
3897.00,0.0061
3896.00,0.0061
3895.00,0.0061
3894.00,0.0061
3893.00,0.0060
3892.00,0.0060
3891.00,0.0060
3890.00,0.0060
3889.00,0.0061
3888.00,0.0061
3887.00,0.0062
3886.00,0.0062
3885.00,0.0061
3884.00,0.0060
3883.00,0.0059
3882.00,0.0059
3881.00,0.0059
3880.00,0.0059
3879.00,0.0059
3878.00,0.0059
3877.00,0.0059
3876.00,0.0059
3875.00,0.0059
3874.00,0.0059
3873.00,0.0059
3872.00,0.0060
3871.00,0.0060
3870.00,0.0060
3869.00,0.0060
3868.00,0.0060
3867.00,0.0061
3866.00,0.0061
3865.00,0.0061
3864.00,0.0060
3863.00,0.0059
3862.00,0.0060
3861.00,0.0060
3860.00,0.0060
3859.00,0.0059
3858.00,0.0059
3857.00,0.0059
3856.00,0.0060
3855.00,0.0061
3854.00,0.0060
3853.00,0.0059
3852.00,0.0059
3851.00,0.0059
3850.00,0.0060
3849.00,0.0060
3848.00,0.0060
3847.00,0.0059
3846.00,0.0059
3845.00,0.0058
3844.00,0.0058
3843.00,0.0058
3842.00,0.0058
3841.00,0.0059
3840.00,0.0059
3839.00,0.0059
3838.00,0.0059
3837.00,0.0059
3836.00,0.0060
3835.00,0.0060
3834.00,0.0060
3833.00,0.0060
3832.00,0.0059
3831.00,0.0059
3830.00,0.0059
3829.00,0.0059
3828.00,0.0059
3827.00,0.0058
3826.00,0.0058
3825.00,0.0059
3824.00,0.0060
3823.00,0.0061
3822.00,0.0061
3821.00,0.0060
3820.00,0.0059
3819.00,0.0059
3818.00,0.0059
3817.00,0.0059
3816.00,0.0057
3815.00,0.0057
3814.00,0.0057
3813.00,0.0058
3812.00,0.0058
3811.00,0.0058
3810.00,0.0057
3809.00,0.0057
3808.00,0.0058
3807.00,0.0058
3806.00,0.0058
3805.00,0.0059
3804.00,0.0059
3803.00,0.0059
3802.00,0.0057
3801.00,0.0057
3800.00,0.0057
3799.00,0.0057
3798.00,0.0058
3797.00,0.0058
3796.00,0.0057
3795.00,0.0057
3794.00,0.0057
3793.00,0.0056
3792.00,0.0056
3791.00,0.0055
3790.00,0.0056
3789.00,0.0056
3788.00,0.0056
3787.00,0.0056
3786.00,0.0055
3785.00,0.0055
3784.00,0.0055
3783.00,0.0056
3782.00,0.0056
3781.00,0.0056
3780.00,0.0055
3779.00,0.0055
3778.00,0.0055
3777.00,0.0056
3776.00,0.0056
3775.00,0.0056
3774.00,0.0056
3773.00,0.0056
3772.00,0.0057
3771.00,0.0057
3770.00,0.0057
3769.00,0.0057
3768.00,0.0057
3767.00,0.0057
3766.00,0.0058
3765.00,0.0058
3764.00,0.0058
3763.00,0.0058
3762.00,0.0058
3761.00,0.0058
3760.00,0.0057
3759.00,0.0057
3758.00,0.0057
3757.00,0.0057
3756.00,0.0057
3755.00,0.0058
3754.00,0.0059
3753.00,0.0060
3752.00,0.0061
3751.00,0.0063
3750.00,0.0063
3749.00,0.0063
3748.00,0.0062
3747.00,0.0061
3746.00,0.0061
3745.00,0.0061
3744.00,0.0060
3743.00,0.0060
3742.00,0.0060
3741.00,0.0060
3740.00,0.0061
3739.00,0.0062
3738.00,0.0062
3737.00,0.0062
3736.00,0.0062
3735.00,0.0063
3734.00,0.0063
3733.00,0.0063
3732.00,0.0062
3731.00,0.0061
3730.00,0.0060
3729.00,0.0060
3728.00,0.0061
3727.00,0.0061
3726.00,0.0060
3725.00,0.0059
3724.00,0.0058
3723.00,0.0057
3722.00,0.0057
3721.00,0.0056
3720.00,0.0056
3719.00,0.0056
3718.00,0.0056
3717.00,0.0057
3716.00,0.0057
3715.00,0.0058
3714.00,0.0059
3713.00,0.0060
3712.00,0.0059
3711.00,0.0059
3710.00,0.0059
3709.00,0.0059
3708.00,0.0059
3707.00,0.0058
3706.00,0.0057
3705.00,0.0057
3704.00,0.0056
3703.00,0.0056
3702.00,0.0056
3701.00,0.0056
3700.00,0.0056
3699.00,0.0056
3698.00,0.0057
3697.00,0.0056
3696.00,0.0056
3695.00,0.0056
3694.00,0.0057
3693.00,0.0057
3692.00,0.0057
3691.00,0.0057
3690.00,0.0057
3689.00,0.0058
3688.00,0.0058
3687.00,0.0059
3686.00,0.0059
3685.00,0.0059
3684.00,0.0059
3683.00,0.0059
3682.00,0.0059
3681.00,0.0059
3680.00,0.0059
3679.00,0.0059
3678.00,0.0059
3677.00,0.0060
3676.00,0.0061
3675.00,0.0061
3674.00,0.0062
3673.00,0.0064
3672.00,0.0065
3671.00,0.0064
3670.00,0.0062
3669.00,0.0061
3668.00,0.0061
3667.00,0.0061
3666.00,0.0062
3665.00,0.0062
3664.00,0.0062
3663.00,0.0062
3662.00,0.0062
3661.00,0.0062
3660.00,0.0062
3659.00,0.0063
3658.00,0.0064
3657.00,0.0065
3656.00,0.0065
3655.00,0.0065
3654.00,0.0066
3653.00,0.0066
3652.00,0.0067
3651.00,0.0068
3650.00,0.0069
3649.00,0.0068
3648.00,0.0068
3647.00,0.0067
3646.00,0.0067
3645.00,0.0067
3644.00,0.0067
3643.00,0.0067
3642.00,0.0066
3641.00,0.0066
3640.00,0.0066
3639.00,0.0066
3638.00,0.0066
3637.00,0.0066
3636.00,0.0066
3635.00,0.0066
3634.00,0.0066
3633.00,0.0067
3632.00,0.0068
3631.00,0.0070
3630.00,0.0072
3629.00,0.0073
3628.00,0.0072
3627.00,0.0071
3626.00,0.0071
3625.00,0.0070
3624.00,0.0069
3623.00,0.0069
3622.00,0.0068
3621.00,0.0069
3620.00,0.0069
3619.00,0.0070
3618.00,0.0070
3617.00,0.0071
3616.00,0.0071
3615.00,0.0071
3614.00,0.0071
3613.00,0.0072
3612.00,0.0074
3611.00,0.0075
3610.00,0.0076
3609.00,0.0075
3608.00,0.0074
3607.00,0.0073
3606.00,0.0072
3605.00,0.0072
3604.00,0.0071
3603.00,0.0071
3602.00,0.0070
3601.00,0.0070
3600.00,0.0070
3599.00,0.0069
3598.00,0.0069
3597.00,0.0069
3596.00,0.0069
3595.00,0.0070
3594.00,0.0071
3593.00,0.0071
3592.00,0.0072
3591.00,0.0073
3590.00,0.0073
3589.00,0.0073
3588.00,0.0073
3587.00,0.0072
3586.00,0.0073
3585.00,0.0073
3584.00,0.0073
3583.00,0.0072
3582.00,0.0072
3581.00,0.0071
3580.00,0.0071
3579.00,0.0071
3578.00,0.0071
3577.00,0.0071
3576.00,0.0071
3575.00,0.0072
3574.00,0.0072
3573.00,0.0072
3572.00,0.0073
3571.00,0.0073
3570.00,0.0074
3569.00,0.0074
3568.00,0.0074
3567.00,0.0074
3566.00,0.0074
3565.00,0.0074
3564.00,0.0074
3563.00,0.0074
3562.00,0.0073
3561.00,0.0073
3560.00,0.0072
3559.00,0.0072
3558.00,0.0073
3557.00,0.0073
3556.00,0.0074
3555.00,0.0074
3554.00,0.0074
3553.00,0.0075
3552.00,0.0075
3551.00,0.0075
3550.00,0.0075
3549.00,0.0075
3548.00,0.0075
3547.00,0.0075
3546.00,0.0075
3545.00,0.0075
3544.00,0.0075
3543.00,0.0075
3542.00,0.0075
3541.00,0.0075
3540.00,0.0075
3539.00,0.0075
3538.00,0.0076
3537.00,0.0076
3536.00,0.0076
3535.00,0.0076
3534.00,0.0076
3533.00,0.0076
3532.00,0.0076
3531.00,0.0075
3530.00,0.0075
3529.00,0.0075
3528.00,0.0076
3527.00,0.0077
3526.00,0.0078
3525.00,0.0078
3524.00,0.0078
3523.00,0.0077
3522.00,0.0077
3521.00,0.0077
3520.00,0.0077
3519.00,0.0077
3518.00,0.0077
3517.00,0.0077
3516.00,0.0077
3515.00,0.0077
3514.00,0.0077
3513.00,0.0077
3512.00,0.0077
3511.00,0.0077
3510.00,0.0077
3509.00,0.0078
3508.00,0.0078
3507.00,0.0078
3506.00,0.0078
3505.00,0.0078
3504.00,0.0078
3503.00,0.0078
3502.00,0.0079
3501.00,0.0079
3500.00,0.0079
3499.00,0.0079
3498.00,0.0078
3497.00,0.0079
3496.00,0.0079
3495.00,0.0079
3494.00,0.0080
3493.00,0.0080
3492.00,0.0080
3491.00,0.0080
3490.00,0.0080
3489.00,0.0079
3488.00,0.0079
3487.00,0.0079
3486.00,0.0080
3485.00,0.0080
3484.00,0.0080
3483.00,0.0080
3482.00,0.0079
3481.00,0.0079
3480.00,0.0079
3479.00,0.0079
3478.00,0.0079
3477.00,0.0080
3476.00,0.0080
3475.00,0.0080
3474.00,0.0080
3473.00,0.0080
3472.00,0.0080
3471.00,0.0080
3470.00,0.0080
3469.00,0.0080
3468.00,0.0080
3467.00,0.0080
3466.00,0.0080
3465.00,0.0080
3464.00,0.0080
3463.00,0.0080
3462.00,0.0081
3461.00,0.0081
3460.00,0.0081
3459.00,0.0081
3458.00,0.0082
3457.00,0.0082
3456.00,0.0082
3455.00,0.0082
3454.00,0.0081
3453.00,0.0082
3452.00,0.0082
3451.00,0.0082
3450.00,0.0082
3449.00,0.0082
3448.00,0.0082
3447.00,0.0082
3446.00,0.0082
3445.00,0.0082
3444.00,0.0082
3443.00,0.0082
3442.00,0.0082
3441.00,0.0082
3440.00,0.0082
3439.00,0.0082
3438.00,0.0083
3437.00,0.0083
3436.00,0.0083
3435.00,0.0083
3434.00,0.0083
3433.00,0.0083
3432.00,0.0083
3431.00,0.0083
3430.00,0.0083
3429.00,0.0083
3428.00,0.0082
3427.00,0.0082
3426.00,0.0082
3425.00,0.0081
3424.00,0.0082
3423.00,0.0082
3422.00,0.0083
3421.00,0.0083
3420.00,0.0084
3419.00,0.0084
3418.00,0.0084
3417.00,0.0083
3416.00,0.0083
3415.00,0.0083
3414.00,0.0083
3413.00,0.0083
3412.00,0.0083
3411.00,0.0082
3410.00,0.0082
3409.00,0.0082
3408.00,0.0083
3407.00,0.0083
3406.00,0.0083
3405.00,0.0083
3404.00,0.0084
3403.00,0.0084
3402.00,0.0084
3401.00,0.0084
3400.00,0.0083
3399.00,0.0083
3398.00,0.0083
3397.00,0.0083
3396.00,0.0083
3395.00,0.0083
3394.00,0.0084
3393.00,0.0084
3392.00,0.0084
3391.00,0.0083
3390.00,0.0083
3389.00,0.0083
3388.00,0.0083
3387.00,0.0083
3386.00,0.0083
3385.00,0.0084
3384.00,0.0084
3383.00,0.0083
3382.00,0.0083
3381.00,0.0083
3380.00,0.0083
3379.00,0.0084
3378.00,0.0084
3377.00,0.0084
3376.00,0.0084
3375.00,0.0084
3374.00,0.0084
3373.00,0.0083
3372.00,0.0083
3371.00,0.0083
3370.00,0.0083
3369.00,0.0083
3368.00,0.0083
3367.00,0.0083
3366.00,0.0083
3365.00,0.0084
3364.00,0.0084
3363.00,0.0085
3362.00,0.0084
3361.00,0.0084
3360.00,0.0084
3359.00,0.0084
3358.00,0.0084
3357.00,0.0084
3356.00,0.0084
3355.00,0.0084
3354.00,0.0084
3353.00,0.0084
3352.00,0.0084
3351.00,0.0084
3350.00,0.0084
3349.00,0.0084
3348.00,0.0084
3347.00,0.0083
3346.00,0.0083
3345.00,0.0083
3344.00,0.0083
3343.00,0.0083
3342.00,0.0083
3341.00,0.0084
3340.00,0.0084
3339.00,0.0084
3338.00,0.0084
3337.00,0.0084
3336.00,0.0084
3335.00,0.0084
3334.00,0.0084
3333.00,0.0084
3332.00,0.0084
3331.00,0.0083
3330.00,0.0083
3329.00,0.0083
3328.00,0.0083
3327.00,0.0083
3326.00,0.0083
3325.00,0.0083
3324.00,0.0082
3323.00,0.0082
3322.00,0.0082
3321.00,0.0082
3320.00,0.0083
3319.00,0.0083
3318.00,0.0084
3317.00,0.0084
3316.00,0.0084
3315.00,0.0083
3314.00,0.0083
3313.00,0.0083
3312.00,0.0083
3311.00,0.0083
3310.00,0.0083
3309.00,0.0083
3308.00,0.0083
3307.00,0.0082
3306.00,0.0082
3305.00,0.0082
3304.00,0.0083
3303.00,0.0083
3302.00,0.0083
3301.00,0.0083
3300.00,0.0083
3299.00,0.0083
3298.00,0.0083
3297.00,0.0083
3296.00,0.0083
3295.00,0.0083
3294.00,0.0083
3293.00,0.0083
3292.00,0.0083
3291.00,0.0083
3290.00,0.0083
3289.00,0.0083
3288.00,0.0083
3287.00,0.0083
3286.00,0.0083
3285.00,0.0083
3284.00,0.0083
3283.00,0.0083
3282.00,0.0083
3281.00,0.0083
3280.00,0.0083
3279.00,0.0083
3278.00,0.0083
3277.00,0.0083
3276.00,0.0083
3275.00,0.0083
3274.00,0.0083
3273.00,0.0083
3272.00,0.0084
3271.00,0.0083
3270.00,0.0083
3269.00,0.0083
3268.00,0.0083
3267.00,0.0083
3266.00,0.0083
3265.00,0.0082
3264.00,0.0082
3263.00,0.0082
3262.00,0.0082
3261.00,0.0082
3260.00,0.0082
3259.00,0.0083
3258.00,0.0083
3257.00,0.0083
3256.00,0.0083
3255.00,0.0083
3254.00,0.0083
3253.00,0.0083
3252.00,0.0083
3251.00,0.0082
3250.00,0.0083
3249.00,0.0083
3248.00,0.0084
3247.00,0.0084
3246.00,0.0084
3245.00,0.0083
3244.00,0.0083
3243.00,0.0083
3242.00,0.0082
3241.00,0.0082
3240.00,0.0082
3239.00,0.0083
3238.00,0.0083
3237.00,0.0083
3236.00,0.0083
3235.00,0.0083
3234.00,0.0082
3233.00,0.0082
3232.00,0.0082
3231.00,0.0082
3230.00,0.0082
3229.00,0.0082
3228.00,0.0082
3227.00,0.0082
3226.00,0.0082
3225.00,0.0082
3224.00,0.0083
3223.00,0.0083
3222.00,0.0083
3221.00,0.0083
3220.00,0.0082
3219.00,0.0082
3218.00,0.0082
3217.00,0.0082
3216.00,0.0082
3215.00,0.0082
3214.00,0.0082
3213.00,0.0082
3212.00,0.0082
3211.00,0.0082
3210.00,0.0081
3209.00,0.0082
3208.00,0.0082
3207.00,0.0082
3206.00,0.0082
3205.00,0.0081
3204.00,0.0081
3203.00,0.0081
3202.00,0.0081
3201.00,0.0081
3200.00,0.0082
3199.00,0.0082
3198.00,0.0083
3197.00,0.0083
3196.00,0.0082
3195.00,0.0082
3194.00,0.0081
3193.00,0.0081
3192.00,0.0080
3191.00,0.0081
3190.00,0.0081
3189.00,0.0082
3188.00,0.0082
3187.00,0.0082
3186.00,0.0082
3185.00,0.0082
3184.00,0.0081
3183.00,0.0081
3182.00,0.0080
3181.00,0.0080
3180.00,0.0080
3179.00,0.0079
3178.00,0.0079
3177.00,0.0079
3176.00,0.0080
3175.00,0.0080
3174.00,0.0080
3173.00,0.0080
3172.00,0.0080
3171.00,0.0080
3170.00,0.0080
3169.00,0.0080
3168.00,0.0080
3167.00,0.0080
3166.00,0.0080
3165.00,0.0080
3164.00,0.0080
3163.00,0.0080
3162.00,0.0080
3161.00,0.0080
3160.00,0.0080
3159.00,0.0079
3158.00,0.0079
3157.00,0.0079
3156.00,0.0078
3155.00,0.0078
3154.00,0.0079
3153.00,0.0079
3152.00,0.0079
3151.00,0.0079
3150.00,0.0079
3149.00,0.0079
3148.00,0.0079
3147.00,0.0079
3146.00,0.0079
3145.00,0.0080
3144.00,0.0079
3143.00,0.0079
3142.00,0.0079
3141.00,0.0079
3140.00,0.0079
3139.00,0.0079
3138.00,0.0079
3137.00,0.0079
3136.00,0.0079
3135.00,0.0078
3134.00,0.0078
3133.00,0.0078
3132.00,0.0078
3131.00,0.0078
3130.00,0.0078
3129.00,0.0078
3128.00,0.0078
3127.00,0.0078
3126.00,0.0078
3125.00,0.0077
3124.00,0.0077
3123.00,0.0077
3122.00,0.0078
3121.00,0.0078
3120.00,0.0078
3119.00,0.0078
3118.00,0.0078
3117.00,0.0078
3116.00,0.0077
3115.00,0.0077
3114.00,0.0077
3113.00,0.0077
3112.00,0.0076
3111.00,0.0076
3110.00,0.0076
3109.00,0.0076
3108.00,0.0076
3107.00,0.0076
3106.00,0.0076
3105.00,0.0076
3104.00,0.0077
3103.00,0.0077
3102.00,0.0076
3101.00,0.0076
3100.00,0.0076
3099.00,0.0076
3098.00,0.0075
3097.00,0.0075
3096.00,0.0076
3095.00,0.0076
3094.00,0.0076
3093.00,0.0077
3092.00,0.0077
3091.00,0.0077
3090.00,0.0077
3089.00,0.0077
3088.00,0.0077
3087.00,0.0076
3086.00,0.0076
3085.00,0.0076
3084.00,0.0075
3083.00,0.0075
3082.00,0.0076
3081.00,0.0076
3080.00,0.0076
3079.00,0.0076
3078.00,0.0076
3077.00,0.0075
3076.00,0.0074
3075.00,0.0074
3074.00,0.0074
3073.00,0.0074
3072.00,0.0074
3071.00,0.0074
3070.00,0.0074
3069.00,0.0075
3068.00,0.0075
3067.00,0.0075
3066.00,0.0075
3065.00,0.0075
3064.00,0.0075
3063.00,0.0075
3062.00,0.0075
3061.00,0.0075
3060.00,0.0075
3059.00,0.0075
3058.00,0.0075
3057.00,0.0074
3056.00,0.0074
3055.00,0.0074
3054.00,0.0074
3053.00,0.0074
3052.00,0.0074
3051.00,0.0074
3050.00,0.0074
3049.00,0.0074
3048.00,0.0074
3047.00,0.0074
3046.00,0.0074
3045.00,0.0074
3044.00,0.0074
3043.00,0.0074
3042.00,0.0074
3041.00,0.0074
3040.00,0.0073
3039.00,0.0073
3038.00,0.0073
3037.00,0.0073
3036.00,0.0073
3035.00,0.0073
3034.00,0.0073
3033.00,0.0073
3032.00,0.0073
3031.00,0.0073
3030.00,0.0073
3029.00,0.0073
3028.00,0.0073
3027.00,0.0073
3026.00,0.0073
3025.00,0.0073
3024.00,0.0073
3023.00,0.0072
3022.00,0.0072
3021.00,0.0072
3020.00,0.0073
3019.00,0.0073
3018.00,0.0073
3017.00,0.0073
3016.00,0.0072
3015.00,0.0073
3014.00,0.0073
3013.00,0.0073
3012.00,0.0074
3011.00,0.0074
3010.00,0.0074
3009.00,0.0075
3008.00,0.0075
3007.00,0.0075
3006.00,0.0076
3005.00,0.0076
3004.00,0.0077
3003.00,0.0078
3002.00,0.0078
3001.00,0.0078
3000.00,0.0079
2999.00,0.0079
2998.00,0.0079
2997.00,0.0080
2996.00,0.0080
2995.00,0.0081
2994.00,0.0081
2993.00,0.0082
2992.00,0.0082
2991.00,0.0082
2990.00,0.0082
2989.00,0.0081
2988.00,0.0082
2987.00,0.0082
2986.00,0.0083
2985.00,0.0085
2984.00,0.0087
2983.00,0.0088
2982.00,0.0089
2981.00,0.0088
2980.00,0.0087
2979.00,0.0086
2978.00,0.0085
2977.00,0.0084
2976.00,0.0083
2975.00,0.0083
2974.00,0.0083
2973.00,0.0083
2972.00,0.0083
2971.00,0.0082
2970.00,0.0081
2969.00,0.0080
2968.00,0.0078
2967.00,0.0077
2966.00,0.0076
2965.00,0.0075
2964.00,0.0074
2963.00,0.0073
2962.00,0.0072
2961.00,0.0071
2960.00,0.0070
2959.00,0.0069
2958.00,0.0069
2957.00,0.0069
2956.00,0.0069
2955.00,0.0069
2954.00,0.0069
2953.00,0.0068
2952.00,0.0068
2951.00,0.0068
2950.00,0.0068
2949.00,0.0067
2948.00,0.0067
2947.00,0.0066
2946.00,0.0066
2945.00,0.0065
2944.00,0.0065
2943.00,0.0064
2942.00,0.0063
2941.00,0.0062
2940.00,0.0062
2939.00,0.0061
2938.00,0.0060
2937.00,0.0060
2936.00,0.0059
2935.00,0.0058
2934.00,0.0057
2933.00,0.0056
2932.00,0.0056
2931.00,0.0054
2930.00,0.0053
2929.00,0.0052
2928.00,0.0051
2927.00,0.0050
2926.00,0.0049
2925.00,0.0048
2924.00,0.0048
2923.00,0.0048
2922.00,0.0048
2921.00,0.0048
2920.00,0.0048
2919.00,0.0048
2918.00,0.0049
2917.00,0.0049
2916.00,0.0050
2915.00,0.0051
2914.00,0.0053
2913.00,0.0055
2912.00,0.0056
2911.00,0.0057
2910.00,0.0058
2909.00,0.0059
2908.00,0.0060
2907.00,0.0061
2906.00,0.0061
2905.00,0.0062
2904.00,0.0062
2903.00,0.0062
2902.00,0.0063
2901.00,0.0063
2900.00,0.0064
2899.00,0.0064
2898.00,0.0064
2897.00,0.0064
2896.00,0.0064
2895.00,0.0065
2894.00,0.0065
2893.00,0.0065
2892.00,0.0066
2891.00,0.0066
2890.00,0.0066
2889.00,0.0067
2888.00,0.0067
2887.00,0.0067
2886.00,0.0067
2885.00,0.0067
2884.00,0.0067
2883.00,0.0067
2882.00,0.0066
2881.00,0.0066
2880.00,0.0066
2879.00,0.0065
2878.00,0.0065
2877.00,0.0064
2876.00,0.0064
2875.00,0.0064
2874.00,0.0064
2873.00,0.0064
2872.00,0.0063
2871.00,0.0063
2870.00,0.0062
2869.00,0.0062
2868.00,0.0061
2867.00,0.0061
2866.00,0.0060
2865.00,0.0060
2864.00,0.0059
2863.00,0.0059
2862.00,0.0058
2861.00,0.0057
2860.00,0.0057
2859.00,0.0056
2858.00,0.0055
2857.00,0.0054
2856.00,0.0053
2855.00,0.0052
2854.00,0.0052
2853.00,0.0051
2852.00,0.0051
2851.00,0.0052
2850.00,0.0052
2849.00,0.0053
2848.00,0.0054
2847.00,0.0054
2846.00,0.0055
2845.00,0.0056
2844.00,0.0057
2843.00,0.0058
2842.00,0.0058
2841.00,0.0059
2840.00,0.0060
2839.00,0.0060
2838.00,0.0060
2837.00,0.0060
2836.00,0.0060
2835.00,0.0060
2834.00,0.0061
2833.00,0.0061
2832.00,0.0061
2831.00,0.0061
2830.00,0.0061
2829.00,0.0060
2828.00,0.0060
2827.00,0.0061
2826.00,0.0061
2825.00,0.0061
2824.00,0.0061
2823.00,0.0061
2822.00,0.0061
2821.00,0.0061
2820.00,0.0061
2819.00,0.0061
2818.00,0.0061
2817.00,0.0061
2816.00,0.0061
2815.00,0.0061
2814.00,0.0061
2813.00,0.0061
2812.00,0.0060
2811.00,0.0060
2810.00,0.0060
2809.00,0.0060
2808.00,0.0060
2807.00,0.0060
2806.00,0.0060
2805.00,0.0059
2804.00,0.0060
2803.00,0.0060
2802.00,0.0060
2801.00,0.0061
2800.00,0.0061
2799.00,0.0060
2798.00,0.0060
2797.00,0.0060
2796.00,0.0060
2795.00,0.0060
2794.00,0.0060
2793.00,0.0059
2792.00,0.0059
2791.00,0.0059
2790.00,0.0059
2789.00,0.0059
2788.00,0.0059
2787.00,0.0059
2786.00,0.0059
2785.00,0.0059
2784.00,0.0059
2783.00,0.0059
2782.00,0.0058
2781.00,0.0058
2780.00,0.0058
2779.00,0.0058
2778.00,0.0058
2777.00,0.0058
2776.00,0.0058
2775.00,0.0058
2774.00,0.0058
2773.00,0.0058
2772.00,0.0058
2771.00,0.0058
2770.00,0.0058
2769.00,0.0058
2768.00,0.0058
2767.00,0.0058
2766.00,0.0057
2765.00,0.0057
2764.00,0.0057
2763.00,0.0057
2762.00,0.0057
2761.00,0.0057
2760.00,0.0057
2759.00,0.0057
2758.00,0.0057
2757.00,0.0057
2756.00,0.0057
2755.00,0.0057
2754.00,0.0057
2753.00,0.0057
2752.00,0.0057
2751.00,0.0057
2750.00,0.0057
2749.00,0.0057
2748.00,0.0057
2747.00,0.0056
2746.00,0.0056
2745.00,0.0056
2744.00,0.0055
2743.00,0.0055
2742.00,0.0056
2741.00,0.0056
2740.00,0.0056
2739.00,0.0056
2738.00,0.0056
2737.00,0.0056
2736.00,0.0055
2735.00,0.0055
2734.00,0.0055
2733.00,0.0055
2732.00,0.0055
2731.00,0.0055
2730.00,0.0055
2729.00,0.0055
2728.00,0.0055
2727.00,0.0054
2726.00,0.0054
2725.00,0.0055
2724.00,0.0055
2723.00,0.0055
2722.00,0.0055
2721.00,0.0055
2720.00,0.0055
2719.00,0.0055
2718.00,0.0055
2717.00,0.0055
2716.00,0.0054
2715.00,0.0054
2714.00,0.0054
2713.00,0.0054
2712.00,0.0054
2711.00,0.0054
2710.00,0.0054
2709.00,0.0054
2708.00,0.0054
2707.00,0.0054
2706.00,0.0054
2705.00,0.0053
2704.00,0.0053
2703.00,0.0053
2702.00,0.0053
2701.00,0.0053
2700.00,0.0053
2699.00,0.0053
2698.00,0.0053
2697.00,0.0053
2696.00,0.0053
2695.00,0.0053
2694.00,0.0053
2693.00,0.0053
2692.00,0.0053
2691.00,0.0053
2690.00,0.0052
2689.00,0.0052
2688.00,0.0052
2687.00,0.0052
2686.00,0.0053
2685.00,0.0053
2684.00,0.0053
2683.00,0.0053
2682.00,0.0053
2681.00,0.0052
2680.00,0.0052
2679.00,0.0052
2678.00,0.0052
2677.00,0.0052
2676.00,0.0052
2675.00,0.0052
2674.00,0.0052
2673.00,0.0052
2672.00,0.0052
2671.00,0.0052
2670.00,0.0052
2669.00,0.0052
2668.00,0.0052
2667.00,0.0052
2666.00,0.0052
2665.00,0.0052
2664.00,0.0052
2663.00,0.0052
2662.00,0.0052
2661.00,0.0052
2660.00,0.0052
2659.00,0.0052
2658.00,0.0052
2657.00,0.0052
2656.00,0.0052
2655.00,0.0052
2654.00,0.0053
2653.00,0.0053
2652.00,0.0053
2651.00,0.0052
2650.00,0.0052
2649.00,0.0052
2648.00,0.0052
2647.00,0.0051
2646.00,0.0051
2645.00,0.0051
2644.00,0.0051
2643.00,0.0051
2642.00,0.0051
2641.00,0.0052
2640.00,0.0052
2639.00,0.0052
2638.00,0.0051
2637.00,0.0051
2636.00,0.0051
2635.00,0.0051
2634.00,0.0051
2633.00,0.0051
2632.00,0.0051
2631.00,0.0051
2630.00,0.0052
2629.00,0.0052
2628.00,0.0052
2627.00,0.0052
2626.00,0.0051
2625.00,0.0051
2624.00,0.0051
2623.00,0.0051
2622.00,0.0051
2621.00,0.0051
2620.00,0.0051
2619.00,0.0051
2618.00,0.0051
2617.00,0.0051
2616.00,0.0051
2615.00,0.0051
2614.00,0.0051
2613.00,0.0051
2612.00,0.0051
2611.00,0.0051
2610.00,0.0051
2609.00,0.0051
2608.00,0.0051
2607.00,0.0051
2606.00,0.0051
2605.00,0.0051
2604.00,0.0051
2603.00,0.0051
2602.00,0.0051
2601.00,0.0051
2600.00,0.0051
2599.00,0.0051
2598.00,0.0051
2597.00,0.0050
2596.00,0.0050
2595.00,0.0050
2594.00,0.0050
2593.00,0.0050
2592.00,0.0050
2591.00,0.0051
2590.00,0.0051
2589.00,0.0051
2588.00,0.0050
2587.00,0.0050
2586.00,0.0050
2585.00,0.0050
2584.00,0.0050
2583.00,0.0050
2582.00,0.0050
2581.00,0.0050
2580.00,0.0050
2579.00,0.0050
2578.00,0.0050
2577.00,0.0050
2576.00,0.0050
2575.00,0.0050
2574.00,0.0050
2573.00,0.0050
2572.00,0.0050
2571.00,0.0050
2570.00,0.0050
2569.00,0.0049
2568.00,0.0049
2567.00,0.0049
2566.00,0.0050
2565.00,0.0050
2564.00,0.0050
2563.00,0.0050
2562.00,0.0049
2561.00,0.0049
2560.00,0.0048
2559.00,0.0048
2558.00,0.0048
2557.00,0.0048
2556.00,0.0048
2555.00,0.0048
2554.00,0.0049
2553.00,0.0049
2552.00,0.0050
2551.00,0.0050
2550.00,0.0050
2549.00,0.0050
2548.00,0.0050
2547.00,0.0050
2546.00,0.0049
2545.00,0.0049
2544.00,0.0048
2543.00,0.0048
2542.00,0.0047
2541.00,0.0048
2540.00,0.0048
2539.00,0.0049
2538.00,0.0049
2537.00,0.0049
2536.00,0.0049
2535.00,0.0048
2534.00,0.0048
2533.00,0.0048
2532.00,0.0048
2531.00,0.0047
2530.00,0.0047
2529.00,0.0047
2528.00,0.0047
2527.00,0.0047
2526.00,0.0047
2525.00,0.0048
2524.00,0.0048
2523.00,0.0048
2522.00,0.0048
2521.00,0.0048
2520.00,0.0048
2519.00,0.0048
2518.00,0.0048
2517.00,0.0047
2516.00,0.0047
2515.00,0.0047
2514.00,0.0048
2513.00,0.0048
2512.00,0.0048
2511.00,0.0047
2510.00,0.0047
2509.00,0.0046
2508.00,0.0046
2507.00,0.0045
2506.00,0.0046
2505.00,0.0046
2504.00,0.0047
2503.00,0.0047
2502.00,0.0047
2501.00,0.0047
2500.00,0.0046
2499.00,0.0046
2498.00,0.0047
2497.00,0.0047
2496.00,0.0047
2495.00,0.0048
2494.00,0.0048
2493.00,0.0048
2492.00,0.0048
2491.00,0.0047
2490.00,0.0047
2489.00,0.0047
2488.00,0.0047
2487.00,0.0047
2486.00,0.0047
2485.00,0.0047
2484.00,0.0046
2483.00,0.0046
2482.00,0.0046
2481.00,0.0046
2480.00,0.0047
2479.00,0.0047
2478.00,0.0047
2477.00,0.0047
2476.00,0.0047
2475.00,0.0046
2474.00,0.0046
2473.00,0.0046
2472.00,0.0046
2471.00,0.0046
2470.00,0.0046
2469.00,0.0047
2468.00,0.0047
2467.00,0.0047
2466.00,0.0047
2465.00,0.0047
2464.00,0.0047
2463.00,0.0047
2462.00,0.0047
2461.00,0.0047
2460.00,0.0046
2459.00,0.0046
2458.00,0.0045
2457.00,0.0045
2456.00,0.0045
2455.00,0.0045
2454.00,0.0045
2453.00,0.0046
2452.00,0.0046
2451.00,0.0046
2450.00,0.0046
2449.00,0.0046
2448.00,0.0046
2447.00,0.0046
2446.00,0.0047
2445.00,0.0047
2444.00,0.0046
2443.00,0.0046
2442.00,0.0045
2441.00,0.0045
2440.00,0.0045
2439.00,0.0045
2438.00,0.0045
2437.00,0.0045
2436.00,0.0045
2435.00,0.0045
2434.00,0.0045
2433.00,0.0044
2432.00,0.0044
2431.00,0.0044
2430.00,0.0044
2429.00,0.0044
2428.00,0.0044
2427.00,0.0045
2426.00,0.0046
2425.00,0.0046
2424.00,0.0046
2423.00,0.0046
2422.00,0.0045
2421.00,0.0045
2420.00,0.0044
2419.00,0.0044
2418.00,0.0044
2417.00,0.0044
2416.00,0.0044
2415.00,0.0044
2414.00,0.0044
2413.00,0.0044
2412.00,0.0044
2411.00,0.0044
2410.00,0.0044
2409.00,0.0043
2408.00,0.0043
2407.00,0.0043
2406.00,0.0043
2405.00,0.0043
2404.00,0.0043
2403.00,0.0044
2402.00,0.0044
2401.00,0.0044
2400.00,0.0043
2399.00,0.0043
2398.00,0.0043
2397.00,0.0043
2396.00,0.0043
2395.00,0.0044
2394.00,0.0043
2393.00,0.0043
2392.00,0.0043
2391.00,0.0043
2390.00,0.0043
2389.00,0.0043
2388.00,0.0043
2387.00,0.0043
2386.00,0.0043
2385.00,0.0043
2384.00,0.0043
2383.00,0.0043
2382.00,0.0043
2381.00,0.0042
2380.00,0.0041
2379.00,0.0039
2378.00,0.0038
2377.00,0.0037
2376.00,0.0037
2375.00,0.0037
2374.00,0.0038
2373.00,0.0039
2372.00,0.0039
2371.00,0.0039
2370.00,0.0038
2369.00,0.0038
2368.00,0.0038
2367.00,0.0039
2366.00,0.0039
2365.00,0.0039
2364.00,0.0039
2363.00,0.0038
2362.00,0.0039
2361.00,0.0039
2360.00,0.0040
2359.00,0.0039
2358.00,0.0038
2357.00,0.0037
2356.00,0.0037
2355.00,0.0037
2354.00,0.0036
2353.00,0.0036
2352.00,0.0037
2351.00,0.0038
2350.00,0.0038
2349.00,0.0038
2348.00,0.0038
2347.00,0.0038
2346.00,0.0038
2345.00,0.0038
2344.00,0.0038
2343.00,0.0038
2342.00,0.0039
2341.00,0.0039
2340.00,0.0038
2339.00,0.0037
2338.00,0.0037
2337.00,0.0037
2336.00,0.0036
2335.00,0.0036
2334.00,0.0036
2333.00,0.0036
2332.00,0.0037
2331.00,0.0038
2330.00,0.0039
2329.00,0.0040
2328.00,0.0041
2327.00,0.0042
2326.00,0.0042
2325.00,0.0042
2324.00,0.0041
2323.00,0.0040
2322.00,0.0040
2321.00,0.0040
2320.00,0.0040
2319.00,0.0040
2318.00,0.0041
2317.00,0.0042
2316.00,0.0042
2315.00,0.0042
2314.00,0.0041
2313.00,0.0040
2312.00,0.0040
2311.00,0.0040
2310.00,0.0041
2309.00,0.0041
2308.00,0.0041
2307.00,0.0041
2306.00,0.0041
2305.00,0.0041
2304.00,0.0041
2303.00,0.0041
2302.00,0.0041
2301.00,0.0041
2300.00,0.0041
2299.00,0.0041
2298.00,0.0041
2297.00,0.0041
2296.00,0.0041
2295.00,0.0041
2294.00,0.0042
2293.00,0.0042
2292.00,0.0042
2291.00,0.0042
2290.00,0.0042
2289.00,0.0042
2288.00,0.0042
2287.00,0.0042
2286.00,0.0041
2285.00,0.0041
2284.00,0.0041
2283.00,0.0041
2282.00,0.0041
2281.00,0.0042
2280.00,0.0042
2279.00,0.0042
2278.00,0.0041
2277.00,0.0040
2276.00,0.0040
2275.00,0.0040
2274.00,0.0041
2273.00,0.0041
2272.00,0.0041
2271.00,0.0041
2270.00,0.0041
2269.00,0.0041
2268.00,0.0041
2267.00,0.0040
2266.00,0.0040
2265.00,0.0040
2264.00,0.0041
2263.00,0.0041
2262.00,0.0042
2261.00,0.0042
2260.00,0.0042
2259.00,0.0041
2258.00,0.0041
2257.00,0.0039
2256.00,0.0039
2255.00,0.0039
2254.00,0.0039
2253.00,0.0040
2252.00,0.0040
2251.00,0.0040
2250.00,0.0039
2249.00,0.0039
2248.00,0.0038
2247.00,0.0038
2246.00,0.0038
2245.00,0.0037
2244.00,0.0038
2243.00,0.0039
2242.00,0.0040
2241.00,0.0041
2240.00,0.0041
2239.00,0.0040
2238.00,0.0040
2237.00,0.0040
2236.00,0.0040
2235.00,0.0040
2234.00,0.0041
2233.00,0.0042
2232.00,0.0043
2231.00,0.0043
2230.00,0.0043
2229.00,0.0042
2228.00,0.0041
2227.00,0.0040
2226.00,0.0039
2225.00,0.0038
2224.00,0.0038
2223.00,0.0038
2222.00,0.0039
2221.00,0.0039
2220.00,0.0040
2219.00,0.0040
2218.00,0.0040
2217.00,0.0039
2216.00,0.0038
2215.00,0.0038
2214.00,0.0039
2213.00,0.0039
2212.00,0.0040
2211.00,0.0040
2210.00,0.0040
2209.00,0.0039
2208.00,0.0038
2207.00,0.0038
2206.00,0.0037
2205.00,0.0037
2204.00,0.0038
2203.00,0.0039
2202.00,0.0040
2201.00,0.0042
2200.00,0.0043
2199.00,0.0043
2198.00,0.0042
2197.00,0.0041
2196.00,0.0040
2195.00,0.0039
2194.00,0.0039
2193.00,0.0039
2192.00,0.0038
2191.00,0.0038
2190.00,0.0038
2189.00,0.0039
2188.00,0.0041
2187.00,0.0042
2186.00,0.0042
2185.00,0.0041
2184.00,0.0041
2183.00,0.0041
2182.00,0.0041
2181.00,0.0042
2180.00,0.0042
2179.00,0.0041
2178.00,0.0039
2177.00,0.0037
2176.00,0.0036
2175.00,0.0037
2174.00,0.0039
2173.00,0.0040
2172.00,0.0040
2171.00,0.0040
2170.00,0.0040
2169.00,0.0041
2168.00,0.0042
2167.00,0.0042
2166.00,0.0041
2165.00,0.0041
2164.00,0.0041
2163.00,0.0042
2162.00,0.0042
2161.00,0.0041
2160.00,0.0040
2159.00,0.0040
2158.00,0.0040
2157.00,0.0039
2156.00,0.0036
2155.00,0.0034
2154.00,0.0033
2153.00,0.0035
2152.00,0.0036
2151.00,0.0037
2150.00,0.0036
2149.00,0.0035
2148.00,0.0035
2147.00,0.0034
2146.00,0.0034
2145.00,0.0034
2144.00,0.0034
2143.00,0.0035
2142.00,0.0035
2141.00,0.0035
2140.00,0.0035
2139.00,0.0035
2138.00,0.0034
2137.00,0.0034
2136.00,0.0033
2135.00,0.0033
2134.00,0.0033
2133.00,0.0033
2132.00,0.0034
2131.00,0.0033
2130.00,0.0033
2129.00,0.0032
2128.00,0.0032
2127.00,0.0033
2126.00,0.0033
2125.00,0.0033
2124.00,0.0033
2123.00,0.0033
2122.00,0.0033
2121.00,0.0033
2120.00,0.0034
2119.00,0.0034
2118.00,0.0035
2117.00,0.0036
2116.00,0.0035
2115.00,0.0034
2114.00,0.0034
2113.00,0.0034
2112.00,0.0034
2111.00,0.0034
2110.00,0.0034
2109.00,0.0034
2108.00,0.0034
2107.00,0.0034
2106.00,0.0034
2105.00,0.0034
2104.00,0.0034
2103.00,0.0033
2102.00,0.0033
2101.00,0.0033
2100.00,0.0033
2099.00,0.0032
2098.00,0.0032
2097.00,0.0031
2096.00,0.0031
2095.00,0.0032
2094.00,0.0032
2093.00,0.0033
2092.00,0.0034
2091.00,0.0034
2090.00,0.0034
2089.00,0.0034
2088.00,0.0034
2087.00,0.0033
2086.00,0.0032
2085.00,0.0032
2084.00,0.0032
2083.00,0.0031
2082.00,0.0030
2081.00,0.0029
2080.00,0.0029
2079.00,0.0029
2078.00,0.0030
2077.00,0.0032
2076.00,0.0032
2075.00,0.0032
2074.00,0.0032
2073.00,0.0031
2072.00,0.0030
2071.00,0.0030
2070.00,0.0030
2069.00,0.0030
2068.00,0.0030
2067.00,0.0030
2066.00,0.0030
2065.00,0.0030
2064.00,0.0030
2063.00,0.0029
2062.00,0.0029
2061.00,0.0028
2060.00,0.0028
2059.00,0.0029
2058.00,0.0030
2057.00,0.0031
2056.00,0.0032
2055.00,0.0032
2054.00,0.0032
2053.00,0.0032
2052.00,0.0032
2051.00,0.0032
2050.00,0.0032
2049.00,0.0031
2048.00,0.0031
2047.00,0.0030
2046.00,0.0031
2045.00,0.0032
2044.00,0.0032
2043.00,0.0032
2042.00,0.0031
2041.00,0.0031
2040.00,0.0031
2039.00,0.0032
2038.00,0.0033
2037.00,0.0035
2036.00,0.0036
2035.00,0.0036
2034.00,0.0036
2033.00,0.0034
2032.00,0.0033
2031.00,0.0032
2030.00,0.0032
2029.00,0.0032
2028.00,0.0032
2027.00,0.0031
2026.00,0.0031
2025.00,0.0031
2024.00,0.0031
2023.00,0.0030
2022.00,0.0031
2021.00,0.0031
2020.00,0.0032
2019.00,0.0032
2018.00,0.0032
2017.00,0.0032
2016.00,0.0031
2015.00,0.0030
2014.00,0.0030
2013.00,0.0031
2012.00,0.0033
2011.00,0.0034
2010.00,0.0034
2009.00,0.0033
2008.00,0.0032
2007.00,0.0030
2006.00,0.0029
2005.00,0.0028
2004.00,0.0028
2003.00,0.0028
2002.00,0.0029
2001.00,0.0029
2000.00,0.0029
1999.00,0.0030
1998.00,0.0030
1997.00,0.0030
1996.00,0.0030
1995.00,0.0030
1994.00,0.0030
1993.00,0.0030
1992.00,0.0031
1991.00,0.0031
1990.00,0.0030
1989.00,0.0029
1988.00,0.0028
1987.00,0.0027
1986.00,0.0027
1985.00,0.0027
1984.00,0.0027
1983.00,0.0028
1982.00,0.0029
1981.00,0.0031
1980.00,0.0032
1979.00,0.0032
1978.00,0.0030
1977.00,0.0029
1976.00,0.0028
1975.00,0.0027
1974.00,0.0025
1973.00,0.0025
1972.00,0.0025
1971.00,0.0027
1970.00,0.0028
1969.00,0.0028
1968.00,0.0028
1967.00,0.0027
1966.00,0.0027
1965.00,0.0029
1964.00,0.0030
1963.00,0.0031
1962.00,0.0030
1961.00,0.0029
1960.00,0.0026
1959.00,0.0025
1958.00,0.0023
1957.00,0.0023
1956.00,0.0024
1955.00,0.0025
1954.00,0.0026
1953.00,0.0026
1952.00,0.0026
1951.00,0.0025
1950.00,0.0024
1949.00,0.0024
1948.00,0.0024
1947.00,0.0024
1946.00,0.0024
1945.00,0.0024
1944.00,0.0023
1943.00,0.0023
1942.00,0.0022
1941.00,0.0022
1940.00,0.0021
1939.00,0.0021
1938.00,0.0021
1937.00,0.0022
1936.00,0.0023
1935.00,0.0023
1934.00,0.0023
1933.00,0.0023
1932.00,0.0023
1931.00,0.0023
1930.00,0.0023
1929.00,0.0023
1928.00,0.0023
1927.00,0.0023
1926.00,0.0023
1925.00,0.0023
1924.00,0.0022
1923.00,0.0022
1922.00,0.0022
1921.00,0.0022
1920.00,0.0022
1919.00,0.0021
1918.00,0.0021
1917.00,0.0020
1916.00,0.0020
1915.00,0.0021
1914.00,0.0022
1913.00,0.0022
1912.00,0.0022
1911.00,0.0021
1910.00,0.0021
1909.00,0.0021
1908.00,0.0021
1907.00,0.0021
1906.00,0.0022
1905.00,0.0022
1904.00,0.0021
1903.00,0.0020
1902.00,0.0020
1901.00,0.0019
1900.00,0.0020
1899.00,0.0020
1898.00,0.0021
1897.00,0.0021
1896.00,0.0021
1895.00,0.0021
1894.00,0.0021
1893.00,0.0020
1892.00,0.0020
1891.00,0.0020
1890.00,0.0019
1889.00,0.0019
1888.00,0.0019
1887.00,0.0019
1886.00,0.0020
1885.00,0.0020
1884.00,0.0019
1883.00,0.0019
1882.00,0.0019
1881.00,0.0019
1880.00,0.0019
1879.00,0.0019
1878.00,0.0018
1877.00,0.0018
1876.00,0.0018
1875.00,0.0018
1874.00,0.0018
1873.00,0.0018
1872.00,0.0019
1871.00,0.0020
1870.00,0.0020
1869.00,0.0020
1868.00,0.0019
1867.00,0.0018
1866.00,0.0018
1865.00,0.0018
1864.00,0.0019
1863.00,0.0018
1862.00,0.0018
1861.00,0.0017
1860.00,0.0017
1859.00,0.0017
1858.00,0.0017
1857.00,0.0018
1856.00,0.0018
1855.00,0.0018
1854.00,0.0018
1853.00,0.0018
1852.00,0.0018
1851.00,0.0018
1850.00,0.0018
1849.00,0.0018
1848.00,0.0017
1847.00,0.0018
1846.00,0.0018
1845.00,0.0019
1844.00,0.0018
1843.00,0.0017
1842.00,0.0017
1841.00,0.0017
1840.00,0.0017
1839.00,0.0017
1838.00,0.0017
1837.00,0.0017
1836.00,0.0017
1835.00,0.0017
1834.00,0.0017
1833.00,0.0018
1832.00,0.0017
1831.00,0.0017
1830.00,0.0015
1829.00,0.0014
1828.00,0.0014
1827.00,0.0014
1826.00,0.0014
1825.00,0.0014
1824.00,0.0014
1823.00,0.0015
1822.00,0.0015
1821.00,0.0016
1820.00,0.0016
1819.00,0.0015
1818.00,0.0015
1817.00,0.0014
1816.00,0.0014
1815.00,0.0014
1814.00,0.0015
1813.00,0.0015
1812.00,0.0015
1811.00,0.0015
1810.00,0.0014
1809.00,0.0014
1808.00,0.0014
1807.00,0.0015
1806.00,0.0015
1805.00,0.0015
1804.00,0.0015
1803.00,0.0015
1802.00,0.0015
1801.00,0.0015
1800.00,0.0015
1799.00,0.0015
1798.00,0.0016
1797.00,0.0017
1796.00,0.0018
1795.00,0.0018
1794.00,0.0019
1793.00,0.0019
1792.00,0.0018
1791.00,0.0016
1790.00,0.0016
1789.00,0.0016
1788.00,0.0016
1787.00,0.0017
1786.00,0.0017
1785.00,0.0017
1784.00,0.0018
1783.00,0.0017
1782.00,0.0017
1781.00,0.0017
1780.00,0.0017
1779.00,0.0017
1778.00,0.0017
1777.00,0.0018
1776.00,0.0019
1775.00,0.0020
1774.00,0.0021
1773.00,0.0021
1772.00,0.0021
1771.00,0.0020
1770.00,0.0020
1769.00,0.0020
1768.00,0.0021
1767.00,0.0021
1766.00,0.0021
1765.00,0.0021
1764.00,0.0021
1763.00,0.0021
1762.00,0.0020
1761.00,0.0020
1760.00,0.0020
1759.00,0.0021
1758.00,0.0020
1757.00,0.0020
1756.00,0.0020
1755.00,0.0021
1754.00,0.0021
1753.00,0.0022
1752.00,0.0024
1751.00,0.0024
1750.00,0.0024
1749.00,0.0023
1748.00,0.0022
1747.00,0.0021
1746.00,0.0021
1745.00,0.0021
1744.00,0.0021
1743.00,0.0021
1742.00,0.0021
1741.00,0.0023
1740.00,0.0024
1739.00,0.0025
1738.00,0.0026
1737.00,0.0027
1736.00,0.0029
1735.00,0.0031
1734.00,0.0032
1733.00,0.0030
1732.00,0.0029
1731.00,0.0028
1730.00,0.0028
1729.00,0.0028
1728.00,0.0029
1727.00,0.0030
1726.00,0.0031
1725.00,0.0031
1724.00,0.0031
1723.00,0.0032
1722.00,0.0032
1721.00,0.0032
1720.00,0.0032
1719.00,0.0032
1718.00,0.0034
1717.00,0.0035
1716.00,0.0036
1715.00,0.0036
1714.00,0.0036
1713.00,0.0035
1712.00,0.0036
1711.00,0.0036
1710.00,0.0036
1709.00,0.0037
1708.00,0.0037
1707.00,0.0037
1706.00,0.0037
1705.00,0.0037
1704.00,0.0038
1703.00,0.0039
1702.00,0.0041
1701.00,0.0043
1700.00,0.0045
1699.00,0.0045
1698.00,0.0044
1697.00,0.0043
1696.00,0.0040
1695.00,0.0040
1694.00,0.0041
1693.00,0.0042
1692.00,0.0042
1691.00,0.0043
1690.00,0.0044
1689.00,0.0044
1688.00,0.0044
1687.00,0.0043
1686.00,0.0043
1685.00,0.0042
1684.00,0.0040
1683.00,0.0041
1682.00,0.0043
1681.00,0.0044
1680.00,0.0044
1679.00,0.0045
1678.00,0.0046
1677.00,0.0046
1676.00,0.0047
1675.00,0.0048
1674.00,0.0049
1673.00,0.0049
1672.00,0.0049
1671.00,0.0050
1670.00,0.0050
1669.00,0.0049
1668.00,0.0049
1667.00,0.0049
1666.00,0.0049
1665.00,0.0050
1664.00,0.0051
1663.00,0.0052
1662.00,0.0052
1661.00,0.0053
1660.00,0.0053
1659.00,0.0054
1658.00,0.0054
1657.00,0.0054
1656.00,0.0053
1655.00,0.0052
1654.00,0.0053
1653.00,0.0054
1652.00,0.0056
1651.00,0.0058
1650.00,0.0058
1649.00,0.0059
1648.00,0.0060
1647.00,0.0060
1646.00,0.0060
1645.00,0.0061
1644.00,0.0061
1643.00,0.0062
1642.00,0.0062
1641.00,0.0062
1640.00,0.0062
1639.00,0.0062
1638.00,0.0062
1637.00,0.0062
1636.00,0.0062
1635.00,0.0062
1634.00,0.0063
1633.00,0.0064
1632.00,0.0065
1631.00,0.0065
1630.00,0.0065
1629.00,0.0065
1628.00,0.0065
1627.00,0.0066
1626.00,0.0067
1625.00,0.0068
1624.00,0.0069
1623.00,0.0069
1622.00,0.0069
1621.00,0.0069
1620.00,0.0068
1619.00,0.0069
1618.00,0.0070
1617.00,0.0071
1616.00,0.0071
1615.00,0.0071
1614.00,0.0071
1613.00,0.0071
1612.00,0.0072
1611.00,0.0072
1610.00,0.0073
1609.00,0.0073
1608.00,0.0074
1607.00,0.0074
1606.00,0.0074
1605.00,0.0074
1604.00,0.0074
1603.00,0.0074
1602.00,0.0074
1601.00,0.0074
1600.00,0.0074
1599.00,0.0074
1598.00,0.0075
1597.00,0.0075
1596.00,0.0075
1595.00,0.0076
1594.00,0.0076
1593.00,0.0075
1592.00,0.0075
1591.00,0.0076
1590.00,0.0075
1589.00,0.0075
1588.00,0.0075
1587.00,0.0075
1586.00,0.0076
1585.00,0.0075
1584.00,0.0075
1583.00,0.0076
1582.00,0.0076
1581.00,0.0076
1580.00,0.0076
1579.00,0.0076
1578.00,0.0075
1577.00,0.0075
1576.00,0.0076
1575.00,0.0076
1574.00,0.0076
1573.00,0.0076
1572.00,0.0075
1571.00,0.0076
1570.00,0.0076
1569.00,0.0075
1568.00,0.0075
1567.00,0.0076
1566.00,0.0076
1565.00,0.0076
1564.00,0.0076
1563.00,0.0075
1562.00,0.0073
1561.00,0.0071
1560.00,0.0071
1559.00,0.0075
1558.00,0.0076
1557.00,0.0076
1556.00,0.0076
1555.00,0.0076
1554.00,0.0075
1553.00,0.0074
1552.00,0.0073
1551.00,0.0073
1550.00,0.0072
1549.00,0.0072
1548.00,0.0072
1547.00,0.0072
1546.00,0.0072
1545.00,0.0072
1544.00,0.0072
1543.00,0.0073
1542.00,0.0073
1541.00,0.0072
1540.00,0.0067
1539.00,0.0064
1538.00,0.0064
1537.00,0.0065
1536.00,0.0065
1535.00,0.0065
1534.00,0.0065
1533.00,0.0065
1532.00,0.0065
1531.00,0.0066
1530.00,0.0066
1529.00,0.0067
1528.00,0.0067
1527.00,0.0067
1526.00,0.0068
1525.00,0.0068
1524.00,0.0068
1523.00,0.0068
1522.00,0.0068
1521.00,0.0066
1520.00,0.0064
1519.00,0.0063
1518.00,0.0063
1517.00,0.0062
1516.00,0.0062
1515.00,0.0063
1514.00,0.0064
1513.00,0.0064
1512.00,0.0065
1511.00,0.0064
1510.00,0.0064
1509.00,0.0064
1508.00,0.0065
1507.00,0.0063
1506.00,0.0060
1505.00,0.0061
1504.00,0.0061
1503.00,0.0061
1502.00,0.0061
1501.00,0.0060
1500.00,0.0060
1499.00,0.0060
1498.00,0.0061
1497.00,0.0061
1496.00,0.0061
1495.00,0.0061
1494.00,0.0060
1493.00,0.0060
1492.00,0.0060
1491.00,0.0060
1490.00,0.0059
1489.00,0.0058
1488.00,0.0056
1487.00,0.0056
1486.00,0.0057
1485.00,0.0057
1484.00,0.0057
1483.00,0.0057
1482.00,0.0056
1481.00,0.0056
1480.00,0.0056
1479.00,0.0056
1478.00,0.0056
1477.00,0.0056
1476.00,0.0058
1475.00,0.0060
1474.00,0.0062
1473.00,0.0062
1472.00,0.0060
1471.00,0.0057
1470.00,0.0056
1469.00,0.0055
1468.00,0.0054
1467.00,0.0053
1466.00,0.0054
1465.00,0.0055
1464.00,0.0055
1463.00,0.0055
1462.00,0.0055
1461.00,0.0055
1460.00,0.0055
1459.00,0.0056
1458.00,0.0058
1457.00,0.0059
1456.00,0.0058
1455.00,0.0056
1454.00,0.0055
1453.00,0.0054
1452.00,0.0054
1451.00,0.0055
1450.00,0.0056
1449.00,0.0057
1448.00,0.0057
1447.00,0.0057
1446.00,0.0057
1445.00,0.0057
1444.00,0.0057
1443.00,0.0056
1442.00,0.0056
1441.00,0.0057
1440.00,0.0057
1439.00,0.0058
1438.00,0.0058
1437.00,0.0059
1436.00,0.0059
1435.00,0.0059
1434.00,0.0059
1433.00,0.0058
1432.00,0.0058
1431.00,0.0058
1430.00,0.0057
1429.00,0.0057
1428.00,0.0058
1427.00,0.0058
1426.00,0.0059
1425.00,0.0059
1424.00,0.0060
1423.00,0.0060
1422.00,0.0059
1421.00,0.0059
1420.00,0.0059
1419.00,0.0059
1418.00,0.0060
1417.00,0.0060
1416.00,0.0061
1415.00,0.0061
1414.00,0.0061
1413.00,0.0061
1412.00,0.0061
1411.00,0.0061
1410.00,0.0061
1409.00,0.0061
1408.00,0.0061
1407.00,0.0061
1406.00,0.0062
1405.00,0.0062
1404.00,0.0063
1403.00,0.0063
1402.00,0.0064
1401.00,0.0064
1400.00,0.0066
1399.00,0.0067
1398.00,0.0068
1397.00,0.0069
1396.00,0.0069
1395.00,0.0068
1394.00,0.0068
1393.00,0.0068
1392.00,0.0069
1391.00,0.0069
1390.00,0.0070
1389.00,0.0070
1388.00,0.0071
1387.00,0.0071
1386.00,0.0070
1385.00,0.0070
1384.00,0.0070
1383.00,0.0071
1382.00,0.0071
1381.00,0.0071
1380.00,0.0070
1379.00,0.0070
1378.00,0.0070
1377.00,0.0070
1376.00,0.0069
1375.00,0.0070
1374.00,0.0069
1373.00,0.0069
1372.00,0.0069
1371.00,0.0068
1370.00,0.0068
1369.00,0.0067
1368.00,0.0067
1367.00,0.0067
1366.00,0.0067
1365.00,0.0066
1364.00,0.0066
1363.00,0.0066
1362.00,0.0066
1361.00,0.0066
1360.00,0.0066
1359.00,0.0066
1358.00,0.0066
1357.00,0.0066
1356.00,0.0065
1355.00,0.0065
1354.00,0.0065
1353.00,0.0065
1352.00,0.0064
1351.00,0.0064
1350.00,0.0064
1349.00,0.0063
1348.00,0.0064
1347.00,0.0064
1346.00,0.0064
1345.00,0.0064
1344.00,0.0064
1343.00,0.0064
1342.00,0.0064
1341.00,0.0063
1340.00,0.0063
1339.00,0.0062
1338.00,0.0062
1337.00,0.0062
1336.00,0.0062
1335.00,0.0062
1334.00,0.0062
1333.00,0.0062
1332.00,0.0062
1331.00,0.0062
1330.00,0.0062
1329.00,0.0062
1328.00,0.0061
1327.00,0.0061
1326.00,0.0061
1325.00,0.0061
1324.00,0.0061
1323.00,0.0062
1322.00,0.0062
1321.00,0.0062
1320.00,0.0061
1319.00,0.0061
1318.00,0.0061
1317.00,0.0062
1316.00,0.0062
1315.00,0.0062
1314.00,0.0062
1313.00,0.0062
1312.00,0.0062
1311.00,0.0062
1310.00,0.0062
1309.00,0.0062
1308.00,0.0062
1307.00,0.0062
1306.00,0.0062
1305.00,0.0062
1304.00,0.0062
1303.00,0.0062
1302.00,0.0063
1301.00,0.0063
1300.00,0.0063
1299.00,0.0063
1298.00,0.0063
1297.00,0.0063
1296.00,0.0064
1295.00,0.0064
1294.00,0.0064
1293.00,0.0064
1292.00,0.0064
1291.00,0.0064
1290.00,0.0064
1289.00,0.0064
1288.00,0.0064
1287.00,0.0064
1286.00,0.0064
1285.00,0.0064
1284.00,0.0064
1283.00,0.0064
1282.00,0.0064
1281.00,0.0064
1280.00,0.0064
1279.00,0.0065
1278.00,0.0065
1277.00,0.0066
1276.00,0.0066
1275.00,0.0067
1274.00,0.0067
1273.00,0.0067
1272.00,0.0067
1271.00,0.0067
1270.00,0.0067
1269.00,0.0067
1268.00,0.0067
1267.00,0.0068
1266.00,0.0068
1265.00,0.0069
1264.00,0.0069
1263.00,0.0069
1262.00,0.0069
1261.00,0.0069
1260.00,0.0069
1259.00,0.0070
1258.00,0.0070
1257.00,0.0070
1256.00,0.0071
1255.00,0.0071
1254.00,0.0072
1253.00,0.0072
1252.00,0.0072
1251.00,0.0073
1250.00,0.0073
1249.00,0.0073
1248.00,0.0074
1247.00,0.0074
1246.00,0.0074
1245.00,0.0074
1244.00,0.0075
1243.00,0.0075
1242.00,0.0076
1241.00,0.0077
1240.00,0.0078
1239.00,0.0078
1238.00,0.0078
1237.00,0.0079
1236.00,0.0079
1235.00,0.0080
1234.00,0.0080
1233.00,0.0081
1232.00,0.0082
1231.00,0.0082
1230.00,0.0082
1229.00,0.0083
1228.00,0.0084
1227.00,0.0085
1226.00,0.0085
1225.00,0.0086
1224.00,0.0086
1223.00,0.0086
1222.00,0.0086
1221.00,0.0086
1220.00,0.0087
1219.00,0.0087
1218.00,0.0087
1217.00,0.0088
1216.00,0.0088
1215.00,0.0089
1214.00,0.0090
1213.00,0.0091
1212.00,0.0091
1211.00,0.0091
1210.00,0.0091
1209.00,0.0091
1208.00,0.0092
1207.00,0.0093
1206.00,0.0094
1205.00,0.0095
1204.00,0.0095
1203.00,0.0096
1202.00,0.0096
1201.00,0.0097
1200.00,0.0097
1199.00,0.0098
1198.00,0.0098
1197.00,0.0098
1196.00,0.0098
1195.00,0.0099
1194.00,0.0099
1193.00,0.0099
1192.00,0.0100
1191.00,0.0101
1190.00,0.0101
1189.00,0.0101
1188.00,0.0101
1187.00,0.0101
1186.00,0.0101
1185.00,0.0101
1184.00,0.0102
1183.00,0.0104
1182.00,0.0104
1181.00,0.0105
1180.00,0.0105
1179.00,0.0106
1178.00,0.0107
1177.00,0.0108
1176.00,0.0108
1175.00,0.0109
1174.00,0.0109
1173.00,0.0109
1172.00,0.0109
1171.00,0.0109
1170.00,0.0110
1169.00,0.0110
1168.00,0.0111
1167.00,0.0111
1166.00,0.0111
1165.00,0.0111
1164.00,0.0111
1163.00,0.0112
1162.00,0.0113
1161.00,0.0114
1160.00,0.0115
1159.00,0.0115
1158.00,0.0115
1157.00,0.0115
1156.00,0.0115
1155.00,0.0116
1154.00,0.0116
1153.00,0.0117
1152.00,0.0117
1151.00,0.0117
1150.00,0.0117
1149.00,0.0118
1148.00,0.0118
1147.00,0.0118
1146.00,0.0118
1145.00,0.0118
1144.00,0.0118
1143.00,0.0118
1142.00,0.0118
1141.00,0.0119
1140.00,0.0119
1139.00,0.0120
1138.00,0.0120
1137.00,0.0120
1136.00,0.0120
1135.00,0.0120
1134.00,0.0120
1133.00,0.0121
1132.00,0.0121
1131.00,0.0122
1130.00,0.0122
1129.00,0.0122
1128.00,0.0121
1127.00,0.0121
1126.00,0.0122
1125.00,0.0122
1124.00,0.0123
1123.00,0.0124
1122.00,0.0125
1121.00,0.0126
1120.00,0.0126
1119.00,0.0126
1118.00,0.0127
1117.00,0.0128
1116.00,0.0129
1115.00,0.0129
1114.00,0.0129
1113.00,0.0129
1112.00,0.0130
1111.00,0.0131
1110.00,0.0132
1109.00,0.0133
1108.00,0.0134
1107.00,0.0135
1106.00,0.0135
1105.00,0.0135
1104.00,0.0136
1103.00,0.0137
1102.00,0.0138
1101.00,0.0140
1100.00,0.0141
1099.00,0.0142
1098.00,0.0142
1097.00,0.0142
1096.00,0.0143
1095.00,0.0144
1094.00,0.0144
1093.00,0.0146
1092.00,0.0147
1091.00,0.0149
1090.00,0.0150
1089.00,0.0151
1088.00,0.0151
1087.00,0.0151
1086.00,0.0152
1085.00,0.0152
1084.00,0.0153
1083.00,0.0154
1082.00,0.0154
1081.00,0.0155
1080.00,0.0155
1079.00,0.0156
1078.00,0.0158
1077.00,0.0160
1076.00,0.0162
1075.00,0.0163
1074.00,0.0164
1073.00,0.0165
1072.00,0.0165
1071.00,0.0165
1070.00,0.0165
1069.00,0.0166
1068.00,0.0166
1067.00,0.0167
1066.00,0.0167
1065.00,0.0167
1064.00,0.0168
1063.00,0.0168
1062.00,0.0169
1061.00,0.0169
1060.00,0.0169
1059.00,0.0168
1058.00,0.0168
1057.00,0.0168
1056.00,0.0168
1055.00,0.0169
1054.00,0.0170
1053.00,0.0171
1052.00,0.0172
1051.00,0.0173
1050.00,0.0173
1049.00,0.0174
1048.00,0.0174
1047.00,0.0173
1046.00,0.0172
1045.00,0.0172
1044.00,0.0171
1043.00,0.0171
1042.00,0.0171
1041.00,0.0172
1040.00,0.0172
1039.00,0.0172
1038.00,0.0171
1037.00,0.0171
1036.00,0.0172
1035.00,0.0172
1034.00,0.0172
1033.00,0.0172
1032.00,0.0172
1031.00,0.0173
1030.00,0.0174
1029.00,0.0175
1028.00,0.0174
1027.00,0.0173
1026.00,0.0172
1025.00,0.0171
1024.00,0.0171
1023.00,0.0171
1022.00,0.0171
1021.00,0.0172
1020.00,0.0171
1019.00,0.0171
1018.00,0.0170
1017.00,0.0169
1016.00,0.0170
1015.00,0.0171
1014.00,0.0172
1013.00,0.0172
1012.00,0.0172
1011.00,0.0172
1010.00,0.0171
1009.00,0.0170
1008.00,0.0169
1007.00,0.0168
1006.00,0.0167
1005.00,0.0166
1004.00,0.0165
1003.00,0.0164
1002.00,0.0164
1001.00,0.0165
1000.00,0.0165
999.00,0.0164
998.00,0.0163
997.00,0.0162
996.00,0.0160
995.00,0.0159
994.00,0.0159
993.00,0.0159
992.00,0.0159
991.00,0.0159
990.00,0.0158
989.00,0.0157
988.00,0.0156
987.00,0.0155
986.00,0.0154
985.00,0.0153
984.00,0.0152
983.00,0.0151
982.00,0.0151
981.00,0.0151
980.00,0.0151
979.00,0.0151
978.00,0.0151
977.00,0.0150
976.00,0.0149
975.00,0.0149
974.00,0.0148
973.00,0.0148
972.00,0.0147
971.00,0.0146
970.00,0.0145
969.00,0.0144
968.00,0.0144
967.00,0.0143
966.00,0.0143
965.00,0.0142
964.00,0.0141
963.00,0.0141
962.00,0.0140
961.00,0.0139
960.00,0.0138
959.00,0.0137
958.00,0.0136
957.00,0.0135
956.00,0.0134
955.00,0.0134
954.00,0.0133
953.00,0.0132
952.00,0.0131
951.00,0.0131
950.00,0.0130
949.00,0.0129
948.00,0.0129
947.00,0.0128
946.00,0.0128
945.00,0.0127
944.00,0.0127
943.00,0.0128
942.00,0.0128
941.00,0.0128
940.00,0.0127
939.00,0.0126
938.00,0.0126
937.00,0.0125
936.00,0.0125
935.00,0.0126
934.00,0.0125
933.00,0.0125
932.00,0.0123
931.00,0.0122
930.00,0.0121
929.00,0.0120
928.00,0.0119
927.00,0.0119
926.00,0.0119
925.00,0.0119
924.00,0.0118
923.00,0.0118
922.00,0.0117
921.00,0.0117
920.00,0.0117
919.00,0.0118
918.00,0.0118
917.00,0.0118
916.00,0.0118
915.00,0.0117
914.00,0.0116
913.00,0.0115
912.00,0.0114
911.00,0.0113
910.00,0.0113
909.00,0.0113
908.00,0.0113
907.00,0.0114
906.00,0.0115
905.00,0.0115
904.00,0.0115
903.00,0.0114
902.00,0.0113
901.00,0.0112
900.00,0.0112
899.00,0.0113
898.00,0.0113
897.00,0.0112
896.00,0.0111
895.00,0.0111
894.00,0.0111
893.00,0.0110
892.00,0.0109
891.00,0.0109
890.00,0.0109
889.00,0.0109
888.00,0.0109
887.00,0.0109
886.00,0.0109
885.00,0.0109
884.00,0.0108
883.00,0.0108
882.00,0.0106
881.00,0.0106
880.00,0.0106
879.00,0.0106
878.00,0.0107
877.00,0.0108
876.00,0.0108
875.00,0.0107
874.00,0.0105
873.00,0.0104
872.00,0.0104
871.00,0.0105
870.00,0.0105
869.00,0.0106
868.00,0.0107
867.00,0.0107
866.00,0.0106
865.00,0.0104
864.00,0.0102
863.00,0.0102
862.00,0.0102
861.00,0.0103
860.00,0.0102
859.00,0.0102
858.00,0.0102
857.00,0.0101
856.00,0.0101
855.00,0.0101
854.00,0.0100
853.00,0.0098
852.00,0.0097
851.00,0.0096
850.00,0.0096
849.00,0.0098
848.00,0.0099
847.00,0.0099
846.00,0.0099
845.00,0.0098
844.00,0.0099
843.00,0.0099
842.00,0.0099
841.00,0.0099
840.00,0.0100
839.00,0.0100
838.00,0.0101
837.00,0.0101
836.00,0.0101
835.00,0.0101
834.00,0.0099
833.00,0.0098
832.00,0.0099
831.00,0.0102
830.00,0.0104
829.00,0.0106
828.00,0.0107
827.00,0.0107
826.00,0.0107
825.00,0.0107
824.00,0.0108
823.00,0.0109
822.00,0.0110
821.00,0.0112
820.00,0.0113
819.00,0.0114
818.00,0.0115
817.00,0.0115
816.00,0.0115
815.00,0.0115
814.00,0.0114
813.00,0.0114
812.00,0.0114
811.00,0.0114
810.00,0.0113
809.00,0.0112
808.00,0.0113
807.00,0.0115
806.00,0.0117
805.00,0.0118
804.00,0.0119
803.00,0.0119
802.00,0.0118
801.00,0.0117
800.00,0.0116
799.00,0.0116
798.00,0.0117
797.00,0.0118
796.00,0.0119
795.00,0.0119
794.00,0.0119
793.00,0.0118
792.00,0.0117
791.00,0.0116
790.00,0.0116
789.00,0.0117
788.00,0.0118
787.00,0.0118
786.00,0.0118
785.00,0.0119
784.00,0.0119
783.00,0.0120
782.00,0.0121
781.00,0.0122
780.00,0.0122
779.00,0.0121
778.00,0.0121
777.00,0.0122
776.00,0.0122
775.00,0.0123
774.00,0.0123
773.00,0.0123
772.00,0.0121
771.00,0.0119
770.00,0.0119
769.00,0.0119
768.00,0.0121
767.00,0.0123
766.00,0.0124
765.00,0.0124
764.00,0.0123
763.00,0.0122
762.00,0.0122
761.00,0.0123
760.00,0.0125
759.00,0.0126
758.00,0.0127
757.00,0.0126
756.00,0.0125
755.00,0.0122
754.00,0.0120
753.00,0.0118
752.00,0.0119
751.00,0.0120
750.00,0.0121
749.00,0.0123
748.00,0.0123
747.00,0.0124
746.00,0.0124
745.00,0.0124
744.00,0.0124
743.00,0.0124
742.00,0.0124
741.00,0.0124
740.00,0.0124
739.00,0.0125
738.00,0.0126
737.00,0.0128
736.00,0.0130
735.00,0.0131
734.00,0.0131
733.00,0.0130
732.00,0.0129
731.00,0.0129
730.00,0.0130
729.00,0.0130
728.00,0.0129
727.00,0.0128
726.00,0.0126
725.00,0.0124
724.00,0.0124
723.00,0.0126
722.00,0.0128
721.00,0.0130
720.00,0.0130
719.00,0.0129
718.00,0.0129
717.00,0.0129
716.00,0.0130
715.00,0.0130
714.00,0.0129
713.00,0.0129
712.00,0.0130
711.00,0.0130
710.00,0.0131
709.00,0.0131
708.00,0.0130
707.00,0.0130
706.00,0.0130
705.00,0.0131
704.00,0.0131
703.00,0.0132
702.00,0.0133
701.00,0.0133
700.00,0.0134
699.00,0.0133
698.00,0.0133
697.00,0.0133
696.00,0.0135
695.00,0.0136
694.00,0.0138
693.00,0.0139
692.00,0.0139
691.00,0.0138
690.00,0.0137
689.00,0.0135
688.00,0.0135
687.00,0.0136
686.00,0.0138
685.00,0.0141
684.00,0.0143
683.00,0.0144
682.00,0.0143
681.00,0.0141
680.00,0.0140
679.00,0.0138
678.00,0.0137
677.00,0.0135
676.00,0.0135
675.00,0.0136
674.00,0.0138
673.00,0.0141
672.00,0.0143
671.00,0.0143
670.00,0.0138
669.00,0.0128
668.00,0.0119
667.00,0.0121
666.00,0.0128
665.00,0.0133
664.00,0.0135
663.00,0.0134
662.00,0.0133
661.00,0.0133
660.00,0.0135
659.00,0.0138
658.00,0.0138
657.00,0.0135
656.00,0.0131
655.00,0.0130
654.00,0.0132
653.00,0.0136
652.00,0.0141
651.00,0.0146
650.00,0.0150
