Created as New Dataset,
cm-1,A
4000.00,0.0102
3999.00,0.0102
3998.00,0.0102
3997.00,0.0102
3996.00,0.0102
3995.00,0.0102
3994.00,0.0103
3993.00,0.0103
3992.00,0.0102
3991.00,0.0102
3990.00,0.0101
3989.00,0.0101
3988.00,0.0101
3987.00,0.0101
3986.00,0.0101
3985.00,0.0101
3984.00,0.0101
3983.00,0.0102
3982.00,0.0102
3981.00,0.0102
3980.00,0.0102
3979.00,0.0102
3978.00,0.0102
3977.00,0.0102
3976.00,0.0102
3975.00,0.0102
3974.00,0.0102
3973.00,0.0102
3972.00,0.0102
3971.00,0.0101
3970.00,0.0101
3969.00,0.0101
3968.00,0.0100
3967.00,0.0100
3966.00,0.0100
3965.00,0.0100
3964.00,0.0101
3963.00,0.0101
3962.00,0.0102
3961.00,0.0102
3960.00,0.0102
3959.00,0.0103
3958.00,0.0102
3957.00,0.0102
3956.00,0.0101
3955.00,0.0101
3954.00,0.0101
3953.00,0.0101
3952.00,0.0101
3951.00,0.0102
3950.00,0.0102
3949.00,0.0103
3948.00,0.0103
3947.00,0.0103
3946.00,0.0104
3945.00,0.0104
3944.00,0.0104
3943.00,0.0103
3942.00,0.0103
3941.00,0.0102
3940.00,0.0102
3939.00,0.0102
3938.00,0.0101
3937.00,0.0100
3936.00,0.0100
3935.00,0.0101
3934.00,0.0102
3933.00,0.0102
3932.00,0.0102
3931.00,0.0103
3930.00,0.0103
3929.00,0.0103
3928.00,0.0102
3927.00,0.0103
3926.00,0.0102
3925.00,0.0102
3924.00,0.0102
3923.00,0.0103
3922.00,0.0103
3921.00,0.0103
3920.00,0.0103
3919.00,0.0103
3918.00,0.0103
3917.00,0.0103
3916.00,0.0102
3915.00,0.0101
3914.00,0.0101
3913.00,0.0101
3912.00,0.0100
3911.00,0.0099
3910.00,0.0099
3909.00,0.0099
3908.00,0.0100
3907.00,0.0101
3906.00,0.0103
3905.00,0.0104
3904.00,0.0104
3903.00,0.0106
3902.00,0.0108
3901.00,0.0110
3900.00,0.0109
3899.00,0.0107
3898.00,0.0104
3897.00,0.0103
3896.00,0.0102
3895.00,0.0102
3894.00,0.0103
3893.00,0.0103
3892.00,0.0103
3891.00,0.0101
3890.00,0.0101
3889.00,0.0103
3888.00,0.0106
3887.00,0.0106
3886.00,0.0103
3885.00,0.0101
3884.00,0.0103
3883.00,0.0107
3882.00,0.0109
3881.00,0.0107
3880.00,0.0104
3879.00,0.0101
3878.00,0.0102
3877.00,0.0104
3876.00,0.0104
3875.00,0.0102
3874.00,0.0101
3873.00,0.0102
3872.00,0.0105
3871.00,0.0106
3870.00,0.0104
3869.00,0.0102
3868.00,0.0103
3867.00,0.0106
3866.00,0.0106
3865.00,0.0105
3864.00,0.0104
3863.00,0.0105
3862.00,0.0105
3861.00,0.0104
3860.00,0.0102
3859.00,0.0100
3858.00,0.0099
3857.00,0.0099
3856.00,0.0101
3855.00,0.0101
3854.00,0.0099
3853.00,0.0099
3852.00,0.0100
3851.00,0.0102
3850.00,0.0103
3849.00,0.0103
3848.00,0.0101
3847.00,0.0100
3846.00,0.0099
3845.00,0.0099
3844.00,0.0098
3843.00,0.0098
3842.00,0.0099
3841.00,0.0101
3840.00,0.0103
3839.00,0.0103
3838.00,0.0103
3837.00,0.0103
3836.00,0.0103
3835.00,0.0104
3834.00,0.0104
3833.00,0.0103
3832.00,0.0102
3831.00,0.0100
3830.00,0.0100
3829.00,0.0101
3828.00,0.0101
3827.00,0.0100
3826.00,0.0098
3825.00,0.0099
3824.00,0.0101
3823.00,0.0103
3822.00,0.0102
3821.00,0.0099
3820.00,0.0098
3819.00,0.0100
3818.00,0.0103
3817.00,0.0102
3816.00,0.0098
3815.00,0.0096
3814.00,0.0097
3813.00,0.0099
3812.00,0.0098
3811.00,0.0096
3810.00,0.0095
3809.00,0.0096
3808.00,0.0095
3807.00,0.0093
3806.00,0.0093
3805.00,0.0095
3804.00,0.0099
3803.00,0.0101
3802.00,0.0099
3801.00,0.0096
3800.00,0.0097
3799.00,0.0101
3798.00,0.0103
3797.00,0.0102
3796.00,0.0099
3795.00,0.0098
3794.00,0.0098
3793.00,0.0098
3792.00,0.0097
3791.00,0.0095
3790.00,0.0094
3789.00,0.0094
3788.00,0.0095
3787.00,0.0095
3786.00,0.0096
3785.00,0.0096
3784.00,0.0096
3783.00,0.0096
3782.00,0.0097
3781.00,0.0098
3780.00,0.0097
3779.00,0.0096
3778.00,0.0096
3777.00,0.0097
3776.00,0.0097
3775.00,0.0096
3774.00,0.0094
3773.00,0.0094
3772.00,0.0094
3771.00,0.0094
3770.00,0.0094
3769.00,0.0095
3768.00,0.0097
3767.00,0.0099
3766.00,0.0099
3765.00,0.0097
3764.00,0.0096
3763.00,0.0097
3762.00,0.0099
3761.00,0.0099
3760.00,0.0098
3759.00,0.0098
3758.00,0.0098
3757.00,0.0097
3756.00,0.0097
3755.00,0.0097
3754.00,0.0097
3753.00,0.0096
3752.00,0.0096
3751.00,0.0098
3750.00,0.0100
3749.00,0.0100
3748.00,0.0101
3747.00,0.0104
3746.00,0.0105
3745.00,0.0101
3744.00,0.0097
3743.00,0.0096
3742.00,0.0099
3741.00,0.0101
3740.00,0.0100
3739.00,0.0100
3738.00,0.0100
3737.00,0.0101
3736.00,0.0102
3735.00,0.0104
3734.00,0.0106
3733.00,0.0105
3732.00,0.0102
3731.00,0.0099
3730.00,0.0098
3729.00,0.0099
3728.00,0.0099
3727.00,0.0098
3726.00,0.0098
3725.00,0.0099
3724.00,0.0100
3723.00,0.0101
3722.00,0.0100
3721.00,0.0099
3720.00,0.0099
3719.00,0.0099
3718.00,0.0098
3717.00,0.0097
3716.00,0.0097
3715.00,0.0098
3714.00,0.0098
3713.00,0.0099
3712.00,0.0100
3711.00,0.0103
3710.00,0.0105
3709.00,0.0106
3708.00,0.0105
3707.00,0.0103
3706.00,0.0103
3705.00,0.0103
3704.00,0.0104
3703.00,0.0105
3702.00,0.0105
3701.00,0.0106
3700.00,0.0106
3699.00,0.0108
3698.00,0.0108
3697.00,0.0108
3696.00,0.0107
3695.00,0.0107
3694.00,0.0107
3693.00,0.0107
3692.00,0.0108
3691.00,0.0109
3690.00,0.0110
3689.00,0.0110
3688.00,0.0109
3687.00,0.0108
3686.00,0.0109
3685.00,0.0108
3684.00,0.0107
3683.00,0.0105
3682.00,0.0104
3681.00,0.0103
3680.00,0.0101
3679.00,0.0102
3678.00,0.0105
3677.00,0.0108
3676.00,0.0109
3675.00,0.0108
3674.00,0.0108
3673.00,0.0111
3672.00,0.0113
3671.00,0.0113
3670.00,0.0111
3669.00,0.0110
3668.00,0.0110
3667.00,0.0111
3666.00,0.0110
3665.00,0.0108
3664.00,0.0106
3663.00,0.0105
3662.00,0.0104
3661.00,0.0104
3660.00,0.0105
3659.00,0.0107
3658.00,0.0109
3657.00,0.0110
3656.00,0.0111
3655.00,0.0113
3654.00,0.0115
3653.00,0.0118
3652.00,0.0118
3651.00,0.0117
3650.00,0.0118
3649.00,0.0123
3648.00,0.0127
3647.00,0.0126
3646.00,0.0124
3645.00,0.0122
3644.00,0.0120
3643.00,0.0118
3642.00,0.0117
3641.00,0.0116
3640.00,0.0115
3639.00,0.0115
3638.00,0.0115
3637.00,0.0116
3636.00,0.0117
3635.00,0.0116
3634.00,0.0115
3633.00,0.0115
3632.00,0.0117
3631.00,0.0121
3630.00,0.0123
3629.00,0.0124
3628.00,0.0124
3627.00,0.0125
3626.00,0.0126
3625.00,0.0126
3624.00,0.0125
3623.00,0.0126
3622.00,0.0128
3621.00,0.0131
3620.00,0.0134
3619.00,0.0135
3618.00,0.0135
3617.00,0.0134
3616.00,0.0134
3615.00,0.0132
3614.00,0.0130
3613.00,0.0129
3612.00,0.0129
3611.00,0.0130
3610.00,0.0130
3609.00,0.0130
3608.00,0.0129
3607.00,0.0128
3606.00,0.0127
3605.00,0.0126
3604.00,0.0125
3603.00,0.0124
3602.00,0.0124
3601.00,0.0124
3600.00,0.0125
3599.00,0.0126
3598.00,0.0127
3597.00,0.0128
3596.00,0.0129
3595.00,0.0130
3594.00,0.0130
3593.00,0.0129
3592.00,0.0129
3591.00,0.0130
3590.00,0.0132
3589.00,0.0133
3588.00,0.0135
3587.00,0.0136
3586.00,0.0137
3585.00,0.0136
3584.00,0.0135
3583.00,0.0133
3582.00,0.0131
3581.00,0.0130
3580.00,0.0130
3579.00,0.0131
3578.00,0.0132
3577.00,0.0132
3576.00,0.0132
3575.00,0.0131
3574.00,0.0131
3573.00,0.0131
3572.00,0.0131
3571.00,0.0132
3570.00,0.0133
3569.00,0.0135
3568.00,0.0138
3567.00,0.0141
3566.00,0.0143
3565.00,0.0143
3564.00,0.0143
3563.00,0.0142
3562.00,0.0140
3561.00,0.0139
3560.00,0.0138
3559.00,0.0137
3558.00,0.0136
3557.00,0.0135
3556.00,0.0135
3555.00,0.0135
3554.00,0.0136
3553.00,0.0137
3552.00,0.0138
3551.00,0.0138
3550.00,0.0139
3549.00,0.0140
3548.00,0.0140
3547.00,0.0141
3546.00,0.0142
3545.00,0.0142
3544.00,0.0142
3543.00,0.0141
3542.00,0.0141
3541.00,0.0140
3540.00,0.0140
3539.00,0.0140
3538.00,0.0140
3537.00,0.0141
3536.00,0.0141
3535.00,0.0142
3534.00,0.0141
3533.00,0.0141
3532.00,0.0141
3531.00,0.0141
3530.00,0.0142
3529.00,0.0143
3528.00,0.0143
3527.00,0.0144
3526.00,0.0145
3525.00,0.0145
3524.00,0.0146
3523.00,0.0146
3522.00,0.0146
3521.00,0.0145
3520.00,0.0145
3519.00,0.0145
3518.00,0.0144
3517.00,0.0145
3516.00,0.0145
3515.00,0.0145
3514.00,0.0145
3513.00,0.0146
3512.00,0.0146
3511.00,0.0147
3510.00,0.0148
3509.00,0.0148
3508.00,0.0148
3507.00,0.0148
3506.00,0.0148
3505.00,0.0148
3504.00,0.0148
3503.00,0.0149
3502.00,0.0149
3501.00,0.0150
3500.00,0.0150
3499.00,0.0150
3498.00,0.0150
3497.00,0.0149
3496.00,0.0149
3495.00,0.0149
3494.00,0.0149
3493.00,0.0150
3492.00,0.0150
3491.00,0.0150
3490.00,0.0150
3489.00,0.0150
3488.00,0.0150
3487.00,0.0150
3486.00,0.0151
3485.00,0.0151
3484.00,0.0152
3483.00,0.0153
3482.00,0.0153
3481.00,0.0154
3480.00,0.0154
3479.00,0.0154
3478.00,0.0154
3477.00,0.0154
3476.00,0.0153
3475.00,0.0153
3474.00,0.0153
3473.00,0.0154
3472.00,0.0155
3471.00,0.0155
3470.00,0.0155
3469.00,0.0155
3468.00,0.0155
3467.00,0.0155
3466.00,0.0155
3465.00,0.0155
3464.00,0.0155
3463.00,0.0155
3462.00,0.0155
3461.00,0.0155
3460.00,0.0155
3459.00,0.0155
3458.00,0.0155
3457.00,0.0156
3456.00,0.0156
3455.00,0.0157
3454.00,0.0158
3453.00,0.0158
3452.00,0.0158
3451.00,0.0158
3450.00,0.0158
3449.00,0.0158
3448.00,0.0159
3447.00,0.0159
3446.00,0.0160
3445.00,0.0160
3444.00,0.0160
3443.00,0.0160
3442.00,0.0159
3441.00,0.0159
3440.00,0.0159
3439.00,0.0159
3438.00,0.0158
3437.00,0.0159
3436.00,0.0159
3435.00,0.0160
3434.00,0.0160
3433.00,0.0160
3432.00,0.0160
3431.00,0.0160
3430.00,0.0160
3429.00,0.0160
3428.00,0.0160
3427.00,0.0160
3426.00,0.0160
3425.00,0.0161
3424.00,0.0161
3423.00,0.0162
3422.00,0.0162
3421.00,0.0162
3420.00,0.0163
3419.00,0.0163
3418.00,0.0163
3417.00,0.0162
3416.00,0.0162
3415.00,0.0162
3414.00,0.0162
3413.00,0.0163
3412.00,0.0163
3411.00,0.0163
3410.00,0.0164
3409.00,0.0164
3408.00,0.0164
3407.00,0.0165
3406.00,0.0165
3405.00,0.0165
3404.00,0.0165
3403.00,0.0165
3402.00,0.0165
3401.00,0.0165
3400.00,0.0165
3399.00,0.0164
3398.00,0.0164
3397.00,0.0165
3396.00,0.0165
3395.00,0.0165
3394.00,0.0165
3393.00,0.0166
3392.00,0.0166
3391.00,0.0166
3390.00,0.0166
3389.00,0.0165
3388.00,0.0165
3387.00,0.0165
3386.00,0.0166
3385.00,0.0166
3384.00,0.0167
3383.00,0.0166
3382.00,0.0166
3381.00,0.0165
3380.00,0.0165
3379.00,0.0166
3378.00,0.0166
3377.00,0.0166
3376.00,0.0167
3375.00,0.0167
3374.00,0.0167
3373.00,0.0167
3372.00,0.0167
3371.00,0.0167
3370.00,0.0166
3369.00,0.0166
3368.00,0.0166
3367.00,0.0167
3366.00,0.0168
3365.00,0.0169
3364.00,0.0169
3363.00,0.0169
3362.00,0.0169
3361.00,0.0169
3360.00,0.0169
3359.00,0.0169
3358.00,0.0169
3357.00,0.0169
3356.00,0.0169
3355.00,0.0169
3354.00,0.0169
3353.00,0.0169
3352.00,0.0169
3351.00,0.0169
3350.00,0.0169
3349.00,0.0168
3348.00,0.0168
3347.00,0.0168
3346.00,0.0168
3345.00,0.0168
3344.00,0.0168
3343.00,0.0169
3342.00,0.0169
3341.00,0.0168
3340.00,0.0168
3339.00,0.0169
3338.00,0.0169
3337.00,0.0170
3336.00,0.0170
3335.00,0.0170
3334.00,0.0170
3333.00,0.0170
3332.00,0.0170
3331.00,0.0170
3330.00,0.0170
3329.00,0.0170
3328.00,0.0170
3327.00,0.0170
3326.00,0.0170
3325.00,0.0170
3324.00,0.0171
3323.00,0.0171
3322.00,0.0171
3321.00,0.0170
3320.00,0.0169
3319.00,0.0169
3318.00,0.0169
3317.00,0.0169
3316.00,0.0170
3315.00,0.0170
3314.00,0.0169
3313.00,0.0169
3312.00,0.0169
3311.00,0.0170
3310.00,0.0170
3309.00,0.0171
3308.00,0.0171
3307.00,0.0171
3306.00,0.0171
3305.00,0.0172
3304.00,0.0172
3303.00,0.0172
3302.00,0.0171
3301.00,0.0171
3300.00,0.0170
3299.00,0.0170
3298.00,0.0170
3297.00,0.0170
3296.00,0.0171
3295.00,0.0171
3294.00,0.0171
3293.00,0.0171
3292.00,0.0171
3291.00,0.0171
3290.00,0.0171
3289.00,0.0171
3288.00,0.0171
3287.00,0.0171
3286.00,0.0171
3285.00,0.0171
3284.00,0.0171
3283.00,0.0171
3282.00,0.0171
3281.00,0.0171
3280.00,0.0171
3279.00,0.0171
3278.00,0.0171
3277.00,0.0171
3276.00,0.0172
3275.00,0.0172
3274.00,0.0172
3273.00,0.0173
3272.00,0.0173
3271.00,0.0172
3270.00,0.0172
3269.00,0.0172
3268.00,0.0172
3267.00,0.0172
3266.00,0.0172
3265.00,0.0172
3264.00,0.0171
3263.00,0.0171
3262.00,0.0171
3261.00,0.0171
3260.00,0.0171
3259.00,0.0171
3258.00,0.0172
3257.00,0.0172
3256.00,0.0172
3255.00,0.0172
3254.00,0.0171
3253.00,0.0170
3252.00,0.0170
3251.00,0.0169
3250.00,0.0169
3249.00,0.0170
3248.00,0.0171
3247.00,0.0171
3246.00,0.0172
3245.00,0.0172
3244.00,0.0173
3243.00,0.0173
3242.00,0.0172
3241.00,0.0172
3240.00,0.0172
3239.00,0.0172
3238.00,0.0172
3237.00,0.0172
3236.00,0.0172
3235.00,0.0172
3234.00,0.0172
3233.00,0.0172
3232.00,0.0173
3231.00,0.0173
3230.00,0.0173
3229.00,0.0173
3228.00,0.0173
3227.00,0.0173
3226.00,0.0173
3225.00,0.0173
3224.00,0.0173
3223.00,0.0173
3222.00,0.0173
3221.00,0.0173
3220.00,0.0173
3219.00,0.0173
3218.00,0.0172
3217.00,0.0172
3216.00,0.0172
3215.00,0.0171
3214.00,0.0172
3213.00,0.0172
3212.00,0.0172
3211.00,0.0173
3210.00,0.0173
3209.00,0.0173
3208.00,0.0172
3207.00,0.0173
3206.00,0.0173
3205.00,0.0173
3204.00,0.0173
3203.00,0.0173
3202.00,0.0173
3201.00,0.0173
3200.00,0.0173
3199.00,0.0173
3198.00,0.0174
3197.00,0.0173
3196.00,0.0173
3195.00,0.0173
3194.00,0.0172
3193.00,0.0172
3192.00,0.0172
3191.00,0.0171
3190.00,0.0171
3189.00,0.0171
3188.00,0.0171
3187.00,0.0171
3186.00,0.0172
3185.00,0.0172
3184.00,0.0172
3183.00,0.0172
3182.00,0.0172
3181.00,0.0172
3180.00,0.0172
3179.00,0.0171
3178.00,0.0171
3177.00,0.0171
3176.00,0.0171
3175.00,0.0172
3174.00,0.0172
3173.00,0.0172
3172.00,0.0172
3171.00,0.0172
3170.00,0.0171
3169.00,0.0171
3168.00,0.0171
3167.00,0.0170
3166.00,0.0171
3165.00,0.0171
3164.00,0.0171
3163.00,0.0172
3162.00,0.0171
3161.00,0.0171
3160.00,0.0171
3159.00,0.0171
3158.00,0.0171
3157.00,0.0171
3156.00,0.0170
3155.00,0.0170
3154.00,0.0170
3153.00,0.0170
3152.00,0.0170
3151.00,0.0170
3150.00,0.0170
3149.00,0.0170
3148.00,0.0170
3147.00,0.0170
3146.00,0.0170
3145.00,0.0170
3144.00,0.0171
3143.00,0.0171
3142.00,0.0171
3141.00,0.0170
3140.00,0.0170
3139.00,0.0170
3138.00,0.0170
3137.00,0.0170
3136.00,0.0169
3135.00,0.0169
3134.00,0.0169
3133.00,0.0169
3132.00,0.0169
3131.00,0.0169
3130.00,0.0169
3129.00,0.0170
3128.00,0.0170
3127.00,0.0170
3126.00,0.0170
3125.00,0.0170
3124.00,0.0169
3123.00,0.0169
3122.00,0.0169
3121.00,0.0169
3120.00,0.0168
3119.00,0.0168
3118.00,0.0169
3117.00,0.0169
3116.00,0.0169
3115.00,0.0169
3114.00,0.0169
3113.00,0.0169
3112.00,0.0169
3111.00,0.0168
3110.00,0.0168
3109.00,0.0167
3108.00,0.0167
3107.00,0.0168
3106.00,0.0168
3105.00,0.0168
3104.00,0.0169
3103.00,0.0169
3102.00,0.0169
3101.00,0.0168
3100.00,0.0168
3099.00,0.0168
3098.00,0.0168
3097.00,0.0168
3096.00,0.0168
3095.00,0.0168
3094.00,0.0168
3093.00,0.0168
3092.00,0.0168
3091.00,0.0168
3090.00,0.0167
3089.00,0.0167
3088.00,0.0168
3087.00,0.0168
3086.00,0.0168
3085.00,0.0167
3084.00,0.0167
3083.00,0.0167
3082.00,0.0167
3081.00,0.0167
3080.00,0.0167
3079.00,0.0168
3078.00,0.0168
3077.00,0.0168
3076.00,0.0167
3075.00,0.0167
3074.00,0.0167
3073.00,0.0167
3072.00,0.0167
3071.00,0.0167
3070.00,0.0167
3069.00,0.0167
3068.00,0.0167
3067.00,0.0167
3066.00,0.0167
3065.00,0.0167
3064.00,0.0167
3063.00,0.0167
3062.00,0.0167
3061.00,0.0167
3060.00,0.0167
3059.00,0.0166
3058.00,0.0167
3057.00,0.0167
3056.00,0.0167
3055.00,0.0167
3054.00,0.0168
3053.00,0.0168
3052.00,0.0167
3051.00,0.0167
3050.00,0.0166
3049.00,0.0165
3048.00,0.0165
3047.00,0.0165
3046.00,0.0165
3045.00,0.0165
3044.00,0.0165
3043.00,0.0165
3042.00,0.0165
3041.00,0.0165
3040.00,0.0165
3039.00,0.0165
3038.00,0.0165
3037.00,0.0165
3036.00,0.0165
3035.00,0.0165
3034.00,0.0165
3033.00,0.0166
3032.00,0.0165
3031.00,0.0165
3030.00,0.0165
3029.00,0.0165
3028.00,0.0164
3027.00,0.0164
3026.00,0.0163
3025.00,0.0163
3024.00,0.0163
3023.00,0.0163
3022.00,0.0163
3021.00,0.0163
3020.00,0.0163
3019.00,0.0163
3018.00,0.0163
3017.00,0.0163
3016.00,0.0163
3015.00,0.0163
3014.00,0.0163
3013.00,0.0163
3012.00,0.0163
3011.00,0.0163
3010.00,0.0162
3009.00,0.0162
3008.00,0.0161
3007.00,0.0161
3006.00,0.0160
3005.00,0.0160
3004.00,0.0160
3003.00,0.0159
3002.00,0.0159
3001.00,0.0159
3000.00,0.0159
2999.00,0.0158
2998.00,0.0158
2997.00,0.0158
2996.00,0.0157
2995.00,0.0157
2994.00,0.0157
2993.00,0.0157
2992.00,0.0156
2991.00,0.0156
2990.00,0.0155
2989.00,0.0155
2988.00,0.0155
2987.00,0.0155
2986.00,0.0155
2985.00,0.0154
2984.00,0.0153
2983.00,0.0153
2982.00,0.0152
2981.00,0.0151
2980.00,0.0151
2979.00,0.0152
2978.00,0.0152
2977.00,0.0153
2976.00,0.0153
2975.00,0.0153
2974.00,0.0152
2973.00,0.0151
2972.00,0.0150
2971.00,0.0150
2970.00,0.0149
2969.00,0.0149
2968.00,0.0149
2967.00,0.0149
2966.00,0.0149
2965.00,0.0148
2964.00,0.0148
2963.00,0.0147
2962.00,0.0147
2961.00,0.0147
2960.00,0.0146
2959.00,0.0146
2958.00,0.0146
2957.00,0.0146
2956.00,0.0146
2955.00,0.0146
2954.00,0.0146
2953.00,0.0147
2952.00,0.0147
2951.00,0.0148
2950.00,0.0148
2949.00,0.0147
2948.00,0.0147
2947.00,0.0147
2946.00,0.0147
2945.00,0.0148
2944.00,0.0148
2943.00,0.0147
2942.00,0.0147
2941.00,0.0146
2940.00,0.0145
2939.00,0.0144
2938.00,0.0144
2937.00,0.0143
2936.00,0.0142
2935.00,0.0141
2934.00,0.0140
2933.00,0.0139
2932.00,0.0138
2931.00,0.0137
2930.00,0.0136
2929.00,0.0135
2928.00,0.0134
2927.00,0.0133
2926.00,0.0132
2925.00,0.0132
2924.00,0.0131
2923.00,0.0131
2922.00,0.0132
2921.00,0.0132
2920.00,0.0132
2919.00,0.0131
2918.00,0.0131
2917.00,0.0132
2916.00,0.0133
2915.00,0.0134
2914.00,0.0136
2913.00,0.0138
2912.00,0.0140
2911.00,0.0141
2910.00,0.0141
2909.00,0.0142
2908.00,0.0143
2907.00,0.0143
2906.00,0.0143
2905.00,0.0143
2904.00,0.0143
2903.00,0.0143
2902.00,0.0143
2901.00,0.0144
2900.00,0.0144
2899.00,0.0145
2898.00,0.0145
2897.00,0.0145
2896.00,0.0145
2895.00,0.0145
2894.00,0.0145
2893.00,0.0145
2892.00,0.0146
2891.00,0.0146
2890.00,0.0146
2889.00,0.0146
2888.00,0.0146
2887.00,0.0147
2886.00,0.0147
2885.00,0.0147
2884.00,0.0147
2883.00,0.0148
2882.00,0.0148
2881.00,0.0148
2880.00,0.0148
2879.00,0.0147
2878.00,0.0147
2877.00,0.0146
2876.00,0.0146
2875.00,0.0145
2874.00,0.0145
2873.00,0.0144
2872.00,0.0144
2871.00,0.0144
2870.00,0.0143
2869.00,0.0143
2868.00,0.0143
2867.00,0.0143
2866.00,0.0142
2865.00,0.0142
2864.00,0.0142
2863.00,0.0142
2862.00,0.0142
2861.00,0.0141
2860.00,0.0140
2859.00,0.0140
2858.00,0.0139
2857.00,0.0138
2856.00,0.0137
2855.00,0.0137
2854.00,0.0137
2853.00,0.0136
2852.00,0.0137
2851.00,0.0137
2850.00,0.0137
2849.00,0.0137
2848.00,0.0138
2847.00,0.0139
2846.00,0.0140
2845.00,0.0142
2844.00,0.0143
2843.00,0.0143
2842.00,0.0144
2841.00,0.0145
2840.00,0.0145
2839.00,0.0146
2838.00,0.0146
2837.00,0.0147
2836.00,0.0147
2835.00,0.0146
2834.00,0.0146
2833.00,0.0146
2832.00,0.0146
2831.00,0.0146
2830.00,0.0147
2829.00,0.0147
2828.00,0.0147
2827.00,0.0146
2826.00,0.0146
2825.00,0.0146
2824.00,0.0146
2823.00,0.0146
2822.00,0.0146
2821.00,0.0146
2820.00,0.0146
2819.00,0.0146
2818.00,0.0146
2817.00,0.0146
2816.00,0.0145
2815.00,0.0145
2814.00,0.0145
2813.00,0.0145
2812.00,0.0145
2811.00,0.0145
2810.00,0.0145
2809.00,0.0145
2808.00,0.0145
2807.00,0.0145
2806.00,0.0145
2805.00,0.0145
2804.00,0.0144
2803.00,0.0144
2802.00,0.0144
2801.00,0.0144
2800.00,0.0144
2799.00,0.0144
2798.00,0.0144
2797.00,0.0144
2796.00,0.0144
2795.00,0.0143
2794.00,0.0143
2793.00,0.0143
2792.00,0.0143
2791.00,0.0143
2790.00,0.0143
2789.00,0.0143
2788.00,0.0143
2787.00,0.0143
2786.00,0.0143
2785.00,0.0143
2784.00,0.0143
2783.00,0.0143
2782.00,0.0143
2781.00,0.0143
2780.00,0.0142
2779.00,0.0142
2778.00,0.0142
2777.00,0.0142
2776.00,0.0142
2775.00,0.0143
2774.00,0.0142
2773.00,0.0142
2772.00,0.0142
2771.00,0.0141
2770.00,0.0141
2769.00,0.0141
2768.00,0.0141
2767.00,0.0141
2766.00,0.0141
2765.00,0.0141
2764.00,0.0141
2763.00,0.0141
2762.00,0.0141
2761.00,0.0141
2760.00,0.0141
2759.00,0.0141
2758.00,0.0141
2757.00,0.0141
2756.00,0.0140
2755.00,0.0140
2754.00,0.0140
2753.00,0.0140
2752.00,0.0140
2751.00,0.0140
2750.00,0.0140
2749.00,0.0140
2748.00,0.0140
2747.00,0.0140
2746.00,0.0140
2745.00,0.0140
2744.00,0.0139
2743.00,0.0139
2742.00,0.0139
2741.00,0.0139
2740.00,0.0139
2739.00,0.0139
2738.00,0.0139
2737.00,0.0139
2736.00,0.0138
2735.00,0.0138
2734.00,0.0137
2733.00,0.0137
2732.00,0.0138
2731.00,0.0138
2730.00,0.0138
2729.00,0.0138
2728.00,0.0138
2727.00,0.0138
2726.00,0.0138
2725.00,0.0137
2724.00,0.0137
2723.00,0.0138
2722.00,0.0138
2721.00,0.0138
2720.00,0.0138
2719.00,0.0137
2718.00,0.0137
2717.00,0.0136
2716.00,0.0136
2715.00,0.0136
2714.00,0.0136
2713.00,0.0136
2712.00,0.0136
2711.00,0.0136
2710.00,0.0137
2709.00,0.0137
2708.00,0.0137
2707.00,0.0136
2706.00,0.0136
2705.00,0.0136
2704.00,0.0136
2703.00,0.0136
2702.00,0.0136
2701.00,0.0136
2700.00,0.0136
2699.00,0.0136
2698.00,0.0135
2697.00,0.0135
2696.00,0.0135
2695.00,0.0135
2694.00,0.0135
2693.00,0.0135
2692.00,0.0135
2691.00,0.0135
2690.00,0.0135
2689.00,0.0135
2688.00,0.0135
2687.00,0.0135
2686.00,0.0134
2685.00,0.0134
2684.00,0.0134
2683.00,0.0134
2682.00,0.0134
2681.00,0.0134
2680.00,0.0134
2679.00,0.0134
2678.00,0.0134
2677.00,0.0134
2676.00,0.0134
2675.00,0.0134
2674.00,0.0134
2673.00,0.0134
2672.00,0.0133
2671.00,0.0133
2670.00,0.0132
2669.00,0.0132
2668.00,0.0132
2667.00,0.0132
2666.00,0.0133
2665.00,0.0133
2664.00,0.0133
2663.00,0.0133
2662.00,0.0133
2661.00,0.0133
2660.00,0.0133
2659.00,0.0133
2658.00,0.0133
2657.00,0.0133
2656.00,0.0133
2655.00,0.0132
2654.00,0.0133
2653.00,0.0133
2652.00,0.0133
2651.00,0.0133
2650.00,0.0133
2649.00,0.0133
2648.00,0.0133
2647.00,0.0133
2646.00,0.0133
2645.00,0.0134
2644.00,0.0134
2643.00,0.0134
2642.00,0.0135
2641.00,0.0135
2640.00,0.0134
2639.00,0.0134
2638.00,0.0134
2637.00,0.0134
2636.00,0.0134
2635.00,0.0134
2634.00,0.0133
2633.00,0.0133
2632.00,0.0133
2631.00,0.0133
2630.00,0.0133
2629.00,0.0133
2628.00,0.0133
2627.00,0.0133
2626.00,0.0133
2625.00,0.0133
2624.00,0.0133
2623.00,0.0132
2622.00,0.0132
2621.00,0.0132
2620.00,0.0132
2619.00,0.0132
2618.00,0.0133
2617.00,0.0133
2616.00,0.0134
2615.00,0.0134
2614.00,0.0133
2613.00,0.0133
2612.00,0.0133
2611.00,0.0132
2610.00,0.0132
2609.00,0.0132
2608.00,0.0132
2607.00,0.0132
2606.00,0.0132
2605.00,0.0132
2604.00,0.0133
2603.00,0.0133
2602.00,0.0133
2601.00,0.0132
2600.00,0.0132
2599.00,0.0132
2598.00,0.0132
2597.00,0.0132
2596.00,0.0132
2595.00,0.0132
2594.00,0.0132
2593.00,0.0132
2592.00,0.0133
2591.00,0.0133
2590.00,0.0133
2589.00,0.0132
2588.00,0.0132
2587.00,0.0131
2586.00,0.0131
2585.00,0.0130
2584.00,0.0130
2583.00,0.0131
2582.00,0.0131
2581.00,0.0131
2580.00,0.0131
2579.00,0.0131
2578.00,0.0131
2577.00,0.0131
2576.00,0.0132
2575.00,0.0132
2574.00,0.0132
2573.00,0.0132
2572.00,0.0131
2571.00,0.0131
2570.00,0.0131
2569.00,0.0131
2568.00,0.0131
2567.00,0.0132
2566.00,0.0132
2565.00,0.0132
2564.00,0.0132
2563.00,0.0132
2562.00,0.0132
2561.00,0.0132
2560.00,0.0132
2559.00,0.0131
2558.00,0.0131
2557.00,0.0131
2556.00,0.0131
2555.00,0.0131
2554.00,0.0131
2553.00,0.0132
2552.00,0.0132
2551.00,0.0132
2550.00,0.0131
2549.00,0.0131
2548.00,0.0131
2547.00,0.0131
2546.00,0.0130
2545.00,0.0130
2544.00,0.0130
2543.00,0.0130
2542.00,0.0131
2541.00,0.0132
2540.00,0.0132
2539.00,0.0132
2538.00,0.0132
2537.00,0.0132
2536.00,0.0132
2535.00,0.0132
2534.00,0.0132
2533.00,0.0132
2532.00,0.0131
2531.00,0.0131
2530.00,0.0131
2529.00,0.0131
2528.00,0.0131
2527.00,0.0131
2526.00,0.0131
2525.00,0.0131
2524.00,0.0132
2523.00,0.0132
2522.00,0.0132
2521.00,0.0132
2520.00,0.0131
2519.00,0.0131
2518.00,0.0131
2517.00,0.0130
2516.00,0.0130
2515.00,0.0130
2514.00,0.0130
2513.00,0.0130
2512.00,0.0131
2511.00,0.0131
2510.00,0.0131
2509.00,0.0130
2508.00,0.0130
2507.00,0.0129
2506.00,0.0129
2505.00,0.0129
2504.00,0.0130
2503.00,0.0130
2502.00,0.0131
2501.00,0.0131
2500.00,0.0132
2499.00,0.0132
2498.00,0.0131
2497.00,0.0131
2496.00,0.0131
2495.00,0.0130
2494.00,0.0130
2493.00,0.0129
2492.00,0.0129
2491.00,0.0130
2490.00,0.0130
2489.00,0.0130
2488.00,0.0130
2487.00,0.0130
2486.00,0.0129
2485.00,0.0129
2484.00,0.0129
2483.00,0.0129
2482.00,0.0130
2481.00,0.0130
2480.00,0.0131
2479.00,0.0131
2478.00,0.0131
2477.00,0.0130
2476.00,0.0130
2475.00,0.0130
2474.00,0.0130
2473.00,0.0130
2472.00,0.0130
2471.00,0.0130
2470.00,0.0129
2469.00,0.0129
2468.00,0.0129
2467.00,0.0129
2466.00,0.0129
2465.00,0.0129
2464.00,0.0130
2463.00,0.0129
2462.00,0.0129
2461.00,0.0128
2460.00,0.0128
2459.00,0.0129
2458.00,0.0130
2457.00,0.0130
2456.00,0.0130
2455.00,0.0129
2454.00,0.0129
2453.00,0.0129
2452.00,0.0129
2451.00,0.0129
2450.00,0.0130
2449.00,0.0129
2448.00,0.0129
2447.00,0.0129
2446.00,0.0129
2445.00,0.0129
2444.00,0.0128
2443.00,0.0128
2442.00,0.0128
2441.00,0.0128
2440.00,0.0128
2439.00,0.0128
2438.00,0.0128
2437.00,0.0128
2436.00,0.0128
2435.00,0.0128
2434.00,0.0128
2433.00,0.0127
2432.00,0.0128
2431.00,0.0128
2430.00,0.0128
2429.00,0.0128
2428.00,0.0128
2427.00,0.0128
2426.00,0.0128
2425.00,0.0128
2424.00,0.0127
2423.00,0.0127
2422.00,0.0127
2421.00,0.0127
2420.00,0.0127
2419.00,0.0127
2418.00,0.0127
2417.00,0.0127
2416.00,0.0127
2415.00,0.0127
2414.00,0.0128
2413.00,0.0128
2412.00,0.0128
2411.00,0.0128
2410.00,0.0127
2409.00,0.0127
2408.00,0.0127
2407.00,0.0127
2406.00,0.0127
2405.00,0.0127
2404.00,0.0127
2403.00,0.0127
2402.00,0.0127
2401.00,0.0126
2400.00,0.0126
2399.00,0.0126
2398.00,0.0125
2397.00,0.0126
2396.00,0.0126
2395.00,0.0126
2394.00,0.0126
2393.00,0.0126
2392.00,0.0126
2391.00,0.0125
2390.00,0.0125
2389.00,0.0124
2388.00,0.0123
2387.00,0.0123
2386.00,0.0122
2385.00,0.0122
2384.00,0.0121
2383.00,0.0120
2382.00,0.0119
2381.00,0.0118
2380.00,0.0117
2379.00,0.0117
2378.00,0.0118
2377.00,0.0118
2376.00,0.0119
2375.00,0.0120
2374.00,0.0120
2373.00,0.0120
2372.00,0.0120
2371.00,0.0120
2370.00,0.0120
2369.00,0.0119
2368.00,0.0119
2367.00,0.0119
2366.00,0.0119
2365.00,0.0119
2364.00,0.0118
2363.00,0.0117
2362.00,0.0117
2361.00,0.0118
2360.00,0.0119
2359.00,0.0119
2358.00,0.0119
2357.00,0.0119
2356.00,0.0119
2355.00,0.0119
2354.00,0.0119
2353.00,0.0119
2352.00,0.0119
2351.00,0.0120
2350.00,0.0119
2349.00,0.0117
2348.00,0.0114
2347.00,0.0112
2346.00,0.0113
2345.00,0.0116
2344.00,0.0119
2343.00,0.0121
2342.00,0.0121
2341.00,0.0121
2340.00,0.0121
2339.00,0.0121
2338.00,0.0121
2337.00,0.0121
2336.00,0.0121
2335.00,0.0121
2334.00,0.0121
2333.00,0.0122
2332.00,0.0123
2331.00,0.0123
2330.00,0.0125
2329.00,0.0126
2328.00,0.0127
2327.00,0.0128
2326.00,0.0127
2325.00,0.0126
2324.00,0.0125
2323.00,0.0125
2322.00,0.0125
2321.00,0.0125
2320.00,0.0124
2319.00,0.0124
2318.00,0.0123
2317.00,0.0123
2316.00,0.0123
2315.00,0.0123
2314.00,0.0122
2313.00,0.0122
2312.00,0.0122
2311.00,0.0122
2310.00,0.0121
2309.00,0.0120
2308.00,0.0119
2307.00,0.0120
2306.00,0.0121
2305.00,0.0122
2304.00,0.0122
2303.00,0.0122
2302.00,0.0122
2301.00,0.0122
2300.00,0.0121
2299.00,0.0120
2298.00,0.0120
2297.00,0.0120
2296.00,0.0119
2295.00,0.0119
2294.00,0.0119
2293.00,0.0119
2292.00,0.0120
2291.00,0.0120
2290.00,0.0121
2289.00,0.0121
2288.00,0.0121
2287.00,0.0120
2286.00,0.0120
2285.00,0.0121
2284.00,0.0121
2283.00,0.0122
2282.00,0.0122
2281.00,0.0122
2280.00,0.0122
2279.00,0.0122
2278.00,0.0121
2277.00,0.0121
2276.00,0.0121
2275.00,0.0121
2274.00,0.0121
2273.00,0.0121
2272.00,0.0121
2271.00,0.0121
2270.00,0.0120
2269.00,0.0120
2268.00,0.0120
2267.00,0.0120
2266.00,0.0120
2265.00,0.0120
2264.00,0.0120
2263.00,0.0119
2262.00,0.0119
2261.00,0.0118
2260.00,0.0119
2259.00,0.0120
2258.00,0.0121
2257.00,0.0121
2256.00,0.0121
2255.00,0.0120
2254.00,0.0119
2253.00,0.0119
2252.00,0.0118
2251.00,0.0118
2250.00,0.0118
2249.00,0.0118
2248.00,0.0118
2247.00,0.0118
2246.00,0.0118
2245.00,0.0118
2244.00,0.0119
2243.00,0.0119
2242.00,0.0119
2241.00,0.0119
2240.00,0.0119
2239.00,0.0119
2238.00,0.0120
2237.00,0.0120
2236.00,0.0120
2235.00,0.0119
2234.00,0.0119
2233.00,0.0119
2232.00,0.0120
2231.00,0.0121
2230.00,0.0122
2229.00,0.0123
2228.00,0.0124
2227.00,0.0124
2226.00,0.0124
2225.00,0.0123
2224.00,0.0122
2223.00,0.0122
2222.00,0.0122
2221.00,0.0123
2220.00,0.0123
2219.00,0.0122
2218.00,0.0121
2217.00,0.0121
2216.00,0.0122
2215.00,0.0123
2214.00,0.0124
2213.00,0.0124
2212.00,0.0123
2211.00,0.0121
2210.00,0.0120
2209.00,0.0119
2208.00,0.0118
2207.00,0.0119
2206.00,0.0119
2205.00,0.0120
2204.00,0.0121
2203.00,0.0123
2202.00,0.0124
2201.00,0.0123
2200.00,0.0123
2199.00,0.0122
2198.00,0.0121
2197.00,0.0121
2196.00,0.0121
2195.00,0.0122
2194.00,0.0121
2193.00,0.0120
2192.00,0.0118
2191.00,0.0118
2190.00,0.0119
2189.00,0.0121
2188.00,0.0121
2187.00,0.0120
2186.00,0.0119
2185.00,0.0118
2184.00,0.0119
2183.00,0.0119
2182.00,0.0120
2181.00,0.0120
2180.00,0.0121
2179.00,0.0121
2178.00,0.0120
2177.00,0.0118
2176.00,0.0117
2175.00,0.0115
2174.00,0.0115
2173.00,0.0116
2172.00,0.0117
2171.00,0.0117
2170.00,0.0117
2169.00,0.0116
2168.00,0.0116
2167.00,0.0116
2166.00,0.0117
2165.00,0.0119
2164.00,0.0121
2163.00,0.0122
2162.00,0.0121
2161.00,0.0118
2160.00,0.0115
2159.00,0.0114
2158.00,0.0114
2157.00,0.0116
2156.00,0.0117
2155.00,0.0116
2154.00,0.0116
2153.00,0.0115
2152.00,0.0114
2151.00,0.0113
2150.00,0.0113
2149.00,0.0112
2148.00,0.0112
2147.00,0.0112
2146.00,0.0112
2145.00,0.0112
2144.00,0.0112
2143.00,0.0112
2142.00,0.0111
2141.00,0.0111
2140.00,0.0112
2139.00,0.0112
2138.00,0.0112
2137.00,0.0111
2136.00,0.0110
2135.00,0.0109
2134.00,0.0109
2133.00,0.0109
2132.00,0.0110
2131.00,0.0111
2130.00,0.0111
2129.00,0.0110
2128.00,0.0108
2127.00,0.0107
2126.00,0.0107
2125.00,0.0108
2124.00,0.0108
2123.00,0.0108
2122.00,0.0109
2121.00,0.0109
2120.00,0.0111
2119.00,0.0112
2118.00,0.0113
2117.00,0.0113
2116.00,0.0112
2115.00,0.0111
2114.00,0.0110
2113.00,0.0109
2112.00,0.0108
2111.00,0.0108
2110.00,0.0108
2109.00,0.0109
2108.00,0.0110
2107.00,0.0110
2106.00,0.0110
2105.00,0.0109
2104.00,0.0109
2103.00,0.0109
2102.00,0.0109
2101.00,0.0109
2100.00,0.0108
2099.00,0.0108
2098.00,0.0108
2097.00,0.0108
2096.00,0.0107
2095.00,0.0106
2094.00,0.0106
2093.00,0.0106
2092.00,0.0107
2091.00,0.0108
2090.00,0.0109
2089.00,0.0109
2088.00,0.0109
2087.00,0.0108
2086.00,0.0107
2085.00,0.0107
2084.00,0.0107
2083.00,0.0107
2082.00,0.0107
2081.00,0.0107
2080.00,0.0107
2079.00,0.0106
2078.00,0.0107
2077.00,0.0108
2076.00,0.0108
2075.00,0.0108
2074.00,0.0107
2073.00,0.0106
2072.00,0.0105
2071.00,0.0106
2070.00,0.0107
2069.00,0.0107
2068.00,0.0107
2067.00,0.0107
2066.00,0.0106
2065.00,0.0107
2064.00,0.0107
2063.00,0.0106
2062.00,0.0106
2061.00,0.0106
2060.00,0.0106
2059.00,0.0106
2058.00,0.0106
2057.00,0.0107
2056.00,0.0107
2055.00,0.0107
2054.00,0.0107
2053.00,0.0106
2052.00,0.0106
2051.00,0.0107
2050.00,0.0108
2049.00,0.0107
2048.00,0.0106
2047.00,0.0105
2046.00,0.0105
2045.00,0.0105
2044.00,0.0105
2043.00,0.0105
2042.00,0.0105
2041.00,0.0106
2040.00,0.0107
2039.00,0.0108
2038.00,0.0109
2037.00,0.0108
2036.00,0.0106
2035.00,0.0104
2034.00,0.0102
2033.00,0.0103
2032.00,0.0105
2031.00,0.0107
2030.00,0.0108
2029.00,0.0108
2028.00,0.0107
2027.00,0.0104
2026.00,0.0103
2025.00,0.0103
2024.00,0.0103
2023.00,0.0104
2022.00,0.0105
2021.00,0.0106
2020.00,0.0106
2019.00,0.0105
2018.00,0.0104
2017.00,0.0102
2016.00,0.0102
2015.00,0.0103
2014.00,0.0105
2013.00,0.0105
2012.00,0.0104
2011.00,0.0101
2010.00,0.0098
2009.00,0.0098
2008.00,0.0098
2007.00,0.0100
2006.00,0.0102
2005.00,0.0103
2004.00,0.0104
2003.00,0.0104
2002.00,0.0105
2001.00,0.0105
2000.00,0.0105
1999.00,0.0104
1998.00,0.0103
1997.00,0.0102
1996.00,0.0101
1995.00,0.0102
1994.00,0.0104
1993.00,0.0105
1992.00,0.0105
1991.00,0.0104
1990.00,0.0103
1989.00,0.0102
1988.00,0.0102
1987.00,0.0101
1986.00,0.0100
1985.00,0.0099
1984.00,0.0099
1983.00,0.0099
1982.00,0.0101
1981.00,0.0103
1980.00,0.0104
1979.00,0.0104
1978.00,0.0104
1977.00,0.0105
1976.00,0.0104
1975.00,0.0104
1974.00,0.0102
1973.00,0.0101
1972.00,0.0101
1971.00,0.0101
1970.00,0.0102
1969.00,0.0104
1968.00,0.0105
1967.00,0.0105
1966.00,0.0104
1965.00,0.0103
1964.00,0.0102
1963.00,0.0102
1962.00,0.0102
1961.00,0.0102
1960.00,0.0101
1959.00,0.0100
1958.00,0.0098
1957.00,0.0095
1956.00,0.0093
1955.00,0.0091
1954.00,0.0091
1953.00,0.0092
1952.00,0.0092
1951.00,0.0093
1950.00,0.0093
1949.00,0.0093
1948.00,0.0093
1947.00,0.0095
1946.00,0.0096
1945.00,0.0097
1944.00,0.0097
1943.00,0.0095
1942.00,0.0093
1941.00,0.0093
1940.00,0.0093
1939.00,0.0093
1938.00,0.0094
1937.00,0.0094
1936.00,0.0093
1935.00,0.0093
1934.00,0.0092
1933.00,0.0093
1932.00,0.0094
1931.00,0.0094
1930.00,0.0094
1929.00,0.0094
1928.00,0.0093
1927.00,0.0093
1926.00,0.0093
1925.00,0.0095
1924.00,0.0095
1923.00,0.0094
1922.00,0.0093
1921.00,0.0093
1920.00,0.0092
1919.00,0.0091
1918.00,0.0090
1917.00,0.0089
1916.00,0.0089
1915.00,0.0089
1914.00,0.0089
1913.00,0.0090
1912.00,0.0090
1911.00,0.0090
1910.00,0.0090
1909.00,0.0089
1908.00,0.0089
1907.00,0.0088
1906.00,0.0088
1905.00,0.0088
1904.00,0.0088
1903.00,0.0087
1902.00,0.0086
1901.00,0.0085
1900.00,0.0085
1899.00,0.0085
1898.00,0.0085
1897.00,0.0085
1896.00,0.0086
1895.00,0.0086
1894.00,0.0087
1893.00,0.0087
1892.00,0.0086
1891.00,0.0085
1890.00,0.0084
1889.00,0.0083
1888.00,0.0083
1887.00,0.0083
1886.00,0.0084
1885.00,0.0084
1884.00,0.0084
1883.00,0.0083
1882.00,0.0083
1881.00,0.0083
1880.00,0.0082
1879.00,0.0082
1878.00,0.0081
1877.00,0.0081
1876.00,0.0081
1875.00,0.0081
1874.00,0.0081
1873.00,0.0081
1872.00,0.0082
1871.00,0.0082
1870.00,0.0081
1869.00,0.0080
1868.00,0.0078
1867.00,0.0078
1866.00,0.0078
1865.00,0.0078
1864.00,0.0078
1863.00,0.0077
1862.00,0.0077
1861.00,0.0077
1860.00,0.0077
1859.00,0.0077
1858.00,0.0077
1857.00,0.0077
1856.00,0.0078
1855.00,0.0078
1854.00,0.0078
1853.00,0.0077
1852.00,0.0076
1851.00,0.0075
1850.00,0.0075
1849.00,0.0075
1848.00,0.0075
1847.00,0.0075
1846.00,0.0075
1845.00,0.0073
1844.00,0.0071
1843.00,0.0070
1842.00,0.0070
1841.00,0.0072
1840.00,0.0073
1839.00,0.0072
1838.00,0.0072
1837.00,0.0071
1836.00,0.0071
1835.00,0.0070
1834.00,0.0071
1833.00,0.0071
1832.00,0.0072
1831.00,0.0072
1830.00,0.0071
1829.00,0.0070
1828.00,0.0070
1827.00,0.0071
1826.00,0.0070
1825.00,0.0069
1824.00,0.0068
1823.00,0.0068
1822.00,0.0067
1821.00,0.0067
1820.00,0.0067
1819.00,0.0067
1818.00,0.0066
1817.00,0.0066
1816.00,0.0065
1815.00,0.0065
1814.00,0.0064
1813.00,0.0064
1812.00,0.0064
1811.00,0.0064
1810.00,0.0063
1809.00,0.0063
1808.00,0.0063
1807.00,0.0063
1806.00,0.0063
1805.00,0.0063
1804.00,0.0064
1803.00,0.0064
1802.00,0.0064
1801.00,0.0064
1800.00,0.0063
1799.00,0.0062
1798.00,0.0062
1797.00,0.0063
1796.00,0.0064
1795.00,0.0064
1794.00,0.0064
1793.00,0.0063
1792.00,0.0062
1791.00,0.0061
1790.00,0.0061
1789.00,0.0062
1788.00,0.0063
1787.00,0.0063
1786.00,0.0062
1785.00,0.0062
1784.00,0.0062
1783.00,0.0063
1782.00,0.0064
1781.00,0.0064
1780.00,0.0064
1779.00,0.0064
1778.00,0.0065
1777.00,0.0066
1776.00,0.0067
1775.00,0.0070
1774.00,0.0071
1773.00,0.0070
1772.00,0.0069
1771.00,0.0068
1770.00,0.0068
1769.00,0.0069
1768.00,0.0069
1767.00,0.0069
1766.00,0.0070
1765.00,0.0071
1764.00,0.0073
1763.00,0.0074
1762.00,0.0073
1761.00,0.0073
1760.00,0.0074
1759.00,0.0075
1758.00,0.0076
1757.00,0.0076
1756.00,0.0075
1755.00,0.0075
1754.00,0.0076
1753.00,0.0077
1752.00,0.0076
1751.00,0.0076
1750.00,0.0077
1749.00,0.0079
1748.00,0.0081
1747.00,0.0082
1746.00,0.0082
1745.00,0.0083
1744.00,0.0084
1743.00,0.0086
1742.00,0.0087
1741.00,0.0088
1740.00,0.0088
1739.00,0.0088
1738.00,0.0090
1737.00,0.0093
1736.00,0.0096
1735.00,0.0096
1734.00,0.0095
1733.00,0.0095
1732.00,0.0097
1731.00,0.0100
1730.00,0.0102
1729.00,0.0104
1728.00,0.0105
1727.00,0.0106
1726.00,0.0107
1725.00,0.0109
1724.00,0.0111
1723.00,0.0112
1722.00,0.0114
1721.00,0.0116
1720.00,0.0117
1719.00,0.0117
1718.00,0.0117
1717.00,0.0118
1716.00,0.0120
1715.00,0.0121
1714.00,0.0123
1713.00,0.0124
1712.00,0.0125
1711.00,0.0125
1710.00,0.0126
1709.00,0.0127
1708.00,0.0128
1707.00,0.0129
1706.00,0.0130
1705.00,0.0132
1704.00,0.0133
1703.00,0.0135
1702.00,0.0136
1701.00,0.0133
1700.00,0.0130
1699.00,0.0130
1698.00,0.0133
1697.00,0.0137
1696.00,0.0137
1695.00,0.0135
1694.00,0.0135
1693.00,0.0137
1692.00,0.0139
1691.00,0.0141
1690.00,0.0141
1689.00,0.0142
1688.00,0.0143
1687.00,0.0144
1686.00,0.0144
1685.00,0.0143
1684.00,0.0145
1683.00,0.0146
1682.00,0.0148
1681.00,0.0150
1680.00,0.0152
1679.00,0.0153
1678.00,0.0154
1677.00,0.0155
1676.00,0.0155
1675.00,0.0156
1674.00,0.0156
1673.00,0.0158
1672.00,0.0160
1671.00,0.0162
1670.00,0.0164
1669.00,0.0165
1668.00,0.0166
1667.00,0.0166
1666.00,0.0168
1665.00,0.0169
1664.00,0.0170
1663.00,0.0171
1662.00,0.0172
1661.00,0.0173
1660.00,0.0173
1659.00,0.0174
1658.00,0.0174
1657.00,0.0175
1656.00,0.0177
1655.00,0.0177
1654.00,0.0178
1653.00,0.0181
1652.00,0.0180
1651.00,0.0180
1650.00,0.0183
1649.00,0.0186
1648.00,0.0188
1647.00,0.0191
1646.00,0.0192
1645.00,0.0193
1644.00,0.0193
1643.00,0.0194
1642.00,0.0195
1641.00,0.0195
1640.00,0.0195
1639.00,0.0196
1638.00,0.0197
1637.00,0.0199
1636.00,0.0202
1635.00,0.0204
1634.00,0.0204
1633.00,0.0205
1632.00,0.0207
1631.00,0.0208
1630.00,0.0209
1629.00,0.0211
1628.00,0.0212
1627.00,0.0214
1626.00,0.0215
1625.00,0.0216
1624.00,0.0218
1623.00,0.0220
1622.00,0.0221
1621.00,0.0221
1620.00,0.0222
1619.00,0.0222
1618.00,0.0223
1617.00,0.0224
1616.00,0.0225
1615.00,0.0226
1614.00,0.0228
1613.00,0.0229
1612.00,0.0229
1611.00,0.0230
1610.00,0.0231
1609.00,0.0233
1608.00,0.0234
1607.00,0.0235
1606.00,0.0236
1605.00,0.0236
1604.00,0.0237
1603.00,0.0238
1602.00,0.0239
1601.00,0.0239
1600.00,0.0240
1599.00,0.0241
1598.00,0.0242
1597.00,0.0243
1596.00,0.0244
1595.00,0.0244
1594.00,0.0245
1593.00,0.0245
1592.00,0.0244
1591.00,0.0245
1590.00,0.0246
1589.00,0.0246
1588.00,0.0246
1587.00,0.0247
1586.00,0.0247
1585.00,0.0247
1584.00,0.0247
1583.00,0.0246
1582.00,0.0247
1581.00,0.0247
1580.00,0.0247
1579.00,0.0247
1578.00,0.0248
1577.00,0.0248
1576.00,0.0248
1575.00,0.0249
1574.00,0.0249
1573.00,0.0249
1572.00,0.0249
1571.00,0.0249
1570.00,0.0249
1569.00,0.0250
1568.00,0.0250
1567.00,0.0251
1566.00,0.0251
1565.00,0.0251
1564.00,0.0250
1563.00,0.0250
1562.00,0.0249
1561.00,0.0245
1560.00,0.0241
1559.00,0.0246
1558.00,0.0250
1557.00,0.0248
1556.00,0.0247
1555.00,0.0248
1554.00,0.0247
1553.00,0.0245
1552.00,0.0244
1551.00,0.0244
1550.00,0.0244
1549.00,0.0243
1548.00,0.0242
1547.00,0.0240
1546.00,0.0238
1545.00,0.0238
1544.00,0.0238
1543.00,0.0238
1542.00,0.0236
1541.00,0.0235
1540.00,0.0236
1539.00,0.0235
1538.00,0.0232
1537.00,0.0231
1536.00,0.0231
1535.00,0.0231
1534.00,0.0231
1533.00,0.0232
1532.00,0.0232
1531.00,0.0230
1530.00,0.0228
1529.00,0.0227
1528.00,0.0227
1527.00,0.0226
1526.00,0.0226
1525.00,0.0224
1524.00,0.0223
1523.00,0.0222
1522.00,0.0221
1521.00,0.0221
1520.00,0.0221
1519.00,0.0220
1518.00,0.0220
1517.00,0.0221
1516.00,0.0221
1515.00,0.0219
1514.00,0.0217
1513.00,0.0216
1512.00,0.0214
1511.00,0.0214
1510.00,0.0214
1509.00,0.0214
1508.00,0.0215
1507.00,0.0216
1506.00,0.0214
1505.00,0.0210
1504.00,0.0208
1503.00,0.0208
1502.00,0.0208
1501.00,0.0207
1500.00,0.0206
1499.00,0.0204
1498.00,0.0203
1497.00,0.0203
1496.00,0.0203
1495.00,0.0203
1494.00,0.0203
1493.00,0.0203
1492.00,0.0203
1491.00,0.0203
1490.00,0.0205
1489.00,0.0206
1488.00,0.0206
1487.00,0.0205
1486.00,0.0204
1485.00,0.0203
1484.00,0.0202
1483.00,0.0201
1482.00,0.0201
1481.00,0.0202
1480.00,0.0202
1479.00,0.0202
1478.00,0.0202
1477.00,0.0201
1476.00,0.0201
1475.00,0.0201
1474.00,0.0201
1473.00,0.0202
1472.00,0.0202
1471.00,0.0202
1470.00,0.0201
1469.00,0.0201
1468.00,0.0201
1467.00,0.0201
1466.00,0.0201
1465.00,0.0202
1464.00,0.0202
1463.00,0.0202
1462.00,0.0201
1461.00,0.0201
1460.00,0.0201
1459.00,0.0201
1458.00,0.0201
1457.00,0.0201
1456.00,0.0202
1455.00,0.0202
1454.00,0.0203
1453.00,0.0204
1452.00,0.0205
1451.00,0.0206
1450.00,0.0206
1449.00,0.0207
1448.00,0.0208
1447.00,0.0208
1446.00,0.0208
1445.00,0.0208
1444.00,0.0208
1443.00,0.0208
1442.00,0.0208
1441.00,0.0208
1440.00,0.0208
1439.00,0.0208
1438.00,0.0208
1437.00,0.0209
1436.00,0.0210
1435.00,0.0211
1434.00,0.0212
1433.00,0.0212
1432.00,0.0213
1431.00,0.0213
1430.00,0.0213
1429.00,0.0213
1428.00,0.0214
1427.00,0.0213
1426.00,0.0213
1425.00,0.0213
1424.00,0.0214
1423.00,0.0215
1422.00,0.0215
1421.00,0.0214
1420.00,0.0214
1419.00,0.0215
1418.00,0.0217
1417.00,0.0218
1416.00,0.0218
1415.00,0.0218
1414.00,0.0217
1413.00,0.0217
1412.00,0.0217
1411.00,0.0217
1410.00,0.0217
1409.00,0.0217
1408.00,0.0217
1407.00,0.0217
1406.00,0.0217
1405.00,0.0218
1404.00,0.0219
1403.00,0.0219
1402.00,0.0219
1401.00,0.0219
1400.00,0.0219
1399.00,0.0220
1398.00,0.0221
1397.00,0.0222
1396.00,0.0223
1395.00,0.0223
1394.00,0.0222
1393.00,0.0221
1392.00,0.0220
1391.00,0.0220
1390.00,0.0221
1389.00,0.0221
1388.00,0.0222
1387.00,0.0222
1386.00,0.0223
1385.00,0.0223
1384.00,0.0223
1383.00,0.0223
1382.00,0.0223
1381.00,0.0223
1380.00,0.0223
1379.00,0.0223
1378.00,0.0224
1377.00,0.0224
1376.00,0.0225
1375.00,0.0226
1374.00,0.0227
1373.00,0.0227
1372.00,0.0227
1371.00,0.0227
1370.00,0.0228
1369.00,0.0228
1368.00,0.0228
1367.00,0.0228
1366.00,0.0228
1365.00,0.0228
1364.00,0.0228
1363.00,0.0229
1362.00,0.0230
1361.00,0.0230
1360.00,0.0231
1359.00,0.0231
1358.00,0.0231
1357.00,0.0230
1356.00,0.0229
1355.00,0.0229
1354.00,0.0230
1353.00,0.0230
1352.00,0.0230
1351.00,0.0229
1350.00,0.0229
1349.00,0.0228
1348.00,0.0229
1347.00,0.0229
1346.00,0.0229
1345.00,0.0229
1344.00,0.0229
1343.00,0.0229
1342.00,0.0229
1341.00,0.0229
1340.00,0.0230
1339.00,0.0231
1338.00,0.0232
1337.00,0.0231
1336.00,0.0231
1335.00,0.0230
1334.00,0.0229
1333.00,0.0229
1332.00,0.0228
1331.00,0.0228
1330.00,0.0228
1329.00,0.0228
1328.00,0.0228
1327.00,0.0229
1326.00,0.0229
1325.00,0.0229
1324.00,0.0228
1323.00,0.0228
1322.00,0.0228
1321.00,0.0228
1320.00,0.0228
1319.00,0.0228
1318.00,0.0229
1317.00,0.0230
1316.00,0.0230
1315.00,0.0231
1314.00,0.0231
1313.00,0.0231
1312.00,0.0230
1311.00,0.0230
1310.00,0.0229
1309.00,0.0229
1308.00,0.0229
1307.00,0.0229
1306.00,0.0229
1305.00,0.0229
1304.00,0.0228
1303.00,0.0229
1302.00,0.0229
1301.00,0.0229
1300.00,0.0230
1299.00,0.0231
1298.00,0.0231
1297.00,0.0231
1296.00,0.0231
1295.00,0.0231
1294.00,0.0231
1293.00,0.0232
1292.00,0.0232
1291.00,0.0232
1290.00,0.0233
1289.00,0.0234
1288.00,0.0234
1287.00,0.0235
1286.00,0.0235
1285.00,0.0234
1284.00,0.0234
1283.00,0.0235
1282.00,0.0235
1281.00,0.0235
1280.00,0.0236
1279.00,0.0237
1278.00,0.0237
1277.00,0.0237
1276.00,0.0238
1275.00,0.0238
1274.00,0.0238
1273.00,0.0238
1272.00,0.0238
1271.00,0.0239
1270.00,0.0239
1269.00,0.0239
1268.00,0.0239
1267.00,0.0239
1266.00,0.0239
1265.00,0.0239
1264.00,0.0238
1263.00,0.0238
1262.00,0.0238
1261.00,0.0239
1260.00,0.0240
1259.00,0.0241
1258.00,0.0243
1257.00,0.0244
1256.00,0.0245
1255.00,0.0246
1254.00,0.0247
1253.00,0.0248
1252.00,0.0250
1251.00,0.0251
1250.00,0.0252
1249.00,0.0252
1248.00,0.0253
1247.00,0.0254
1246.00,0.0255
1245.00,0.0256
1244.00,0.0257
1243.00,0.0257
1242.00,0.0257
1241.00,0.0258
1240.00,0.0258
1239.00,0.0259
1238.00,0.0259
1237.00,0.0260
1236.00,0.0260
1235.00,0.0260
1234.00,0.0261
1233.00,0.0261
1232.00,0.0262
1231.00,0.0262
1230.00,0.0262
1229.00,0.0262
1228.00,0.0263
1227.00,0.0263
1226.00,0.0264
1225.00,0.0265
1224.00,0.0265
1223.00,0.0265
1222.00,0.0265
1221.00,0.0265
1220.00,0.0265
1219.00,0.0265
1218.00,0.0266
1217.00,0.0266
1216.00,0.0266
1215.00,0.0266
1214.00,0.0267
1213.00,0.0267
1212.00,0.0268
1211.00,0.0268
1210.00,0.0268
1209.00,0.0268
1208.00,0.0268
1207.00,0.0269
1206.00,0.0269
1205.00,0.0269
1204.00,0.0269
1203.00,0.0269
1202.00,0.0269
1201.00,0.0270
1200.00,0.0269
1199.00,0.0269
1198.00,0.0269
1197.00,0.0269
1196.00,0.0270
1195.00,0.0271
1194.00,0.0272
1193.00,0.0272
1192.00,0.0271
1191.00,0.0272
1190.00,0.0272
1189.00,0.0273
1188.00,0.0274
1187.00,0.0274
1186.00,0.0274
1185.00,0.0274
1184.00,0.0274
1183.00,0.0274
1182.00,0.0274
1181.00,0.0274
1180.00,0.0275
1179.00,0.0276
1178.00,0.0278
1177.00,0.0279
1176.00,0.0280
1175.00,0.0280
1174.00,0.0280
1173.00,0.0279
1172.00,0.0279
1171.00,0.0279
1170.00,0.0279
1169.00,0.0280
1168.00,0.0282
1167.00,0.0283
1166.00,0.0284
1165.00,0.0284
1164.00,0.0284
1163.00,0.0284
1162.00,0.0283
1161.00,0.0282
1160.00,0.0282
1159.00,0.0283
1158.00,0.0284
1157.00,0.0284
1156.00,0.0284
1155.00,0.0284
1154.00,0.0285
1153.00,0.0286
1152.00,0.0287
1151.00,0.0287
1150.00,0.0288
1149.00,0.0288
1148.00,0.0289
1147.00,0.0291
1146.00,0.0292
1145.00,0.0293
1144.00,0.0293
1143.00,0.0293
1142.00,0.0293
1141.00,0.0293
1140.00,0.0294
1139.00,0.0295
1138.00,0.0297
1137.00,0.0298
1136.00,0.0300
1135.00,0.0301
1134.00,0.0303
1133.00,0.0304
1132.00,0.0304
1131.00,0.0305
1130.00,0.0305
1129.00,0.0307
1128.00,0.0309
1127.00,0.0313
1126.00,0.0315
1125.00,0.0317
1124.00,0.0318
1123.00,0.0320
1122.00,0.0321
1121.00,0.0324
1120.00,0.0328
1119.00,0.0331
1118.00,0.0334
1117.00,0.0336
1116.00,0.0336
1115.00,0.0337
1114.00,0.0337
1113.00,0.0337
1112.00,0.0338
1111.00,0.0339
1110.00,0.0340
1109.00,0.0342
1108.00,0.0344
1107.00,0.0345
1106.00,0.0346
1105.00,0.0347
1104.00,0.0349
1103.00,0.0351
1102.00,0.0352
1101.00,0.0354
1100.00,0.0355
1099.00,0.0356
1098.00,0.0358
1097.00,0.0359
1096.00,0.0359
1095.00,0.0359
1094.00,0.0360
1093.00,0.0361
1092.00,0.0363
1091.00,0.0363
1090.00,0.0364
1089.00,0.0364
1088.00,0.0366
1087.00,0.0366
1086.00,0.0366
1085.00,0.0365
1084.00,0.0365
1083.00,0.0365
1082.00,0.0366
1081.00,0.0366
1080.00,0.0365
1079.00,0.0365
1078.00,0.0366
1077.00,0.0368
1076.00,0.0370
1075.00,0.0371
1074.00,0.0371
1073.00,0.0371
1072.00,0.0371
1071.00,0.0372
1070.00,0.0373
1069.00,0.0375
1068.00,0.0377
1067.00,0.0378
1066.00,0.0378
1065.00,0.0378
1064.00,0.0379
1063.00,0.0380
1062.00,0.0381
1061.00,0.0382
1060.00,0.0383
1059.00,0.0385
1058.00,0.0386
1057.00,0.0388
1056.00,0.0389
1055.00,0.0391
1054.00,0.0392
1053.00,0.0394
1052.00,0.0397
1051.00,0.0399
1050.00,0.0402
1049.00,0.0404
1048.00,0.0406
1047.00,0.0407
1046.00,0.0409
1045.00,0.0410
1044.00,0.0411
1043.00,0.0411
1042.00,0.0413
1041.00,0.0415
1040.00,0.0417
1039.00,0.0419
1038.00,0.0420
1037.00,0.0421
1036.00,0.0422
1035.00,0.0423
1034.00,0.0424
1033.00,0.0425
1032.00,0.0424
1031.00,0.0422
1030.00,0.0419
1029.00,0.0415
1028.00,0.0413
1027.00,0.0410
1026.00,0.0407
1025.00,0.0404
1024.00,0.0401
1023.00,0.0398
1022.00,0.0397
1021.00,0.0396
1020.00,0.0395
1019.00,0.0394
1018.00,0.0393
1017.00,0.0392
1016.00,0.0392
1015.00,0.0393
1014.00,0.0394
1013.00,0.0395
1012.00,0.0397
1011.00,0.0398
1010.00,0.0399
1009.00,0.0400
1008.00,0.0401
1007.00,0.0402
1006.00,0.0402
1005.00,0.0401
1004.00,0.0400
1003.00,0.0398
1002.00,0.0396
1001.00,0.0394
1000.00,0.0392
999.00,0.0389
998.00,0.0386
997.00,0.0382
996.00,0.0378
995.00,0.0374
994.00,0.0370
993.00,0.0367
992.00,0.0363
991.00,0.0359
990.00,0.0355
989.00,0.0352
988.00,0.0350
987.00,0.0349
986.00,0.0349
985.00,0.0347
984.00,0.0345
983.00,0.0342
982.00,0.0339
981.00,0.0336
980.00,0.0334
979.00,0.0333
978.00,0.0332
977.00,0.0331
976.00,0.0330
975.00,0.0328
974.00,0.0326
973.00,0.0324
972.00,0.0323
971.00,0.0321
970.00,0.0320
969.00,0.0320
968.00,0.0319
967.00,0.0318
966.00,0.0317
965.00,0.0316
964.00,0.0315
963.00,0.0315
962.00,0.0314
961.00,0.0312
960.00,0.0311
959.00,0.0309
958.00,0.0308
957.00,0.0307
956.00,0.0306
955.00,0.0307
954.00,0.0307
953.00,0.0307
952.00,0.0307
951.00,0.0307
950.00,0.0307
949.00,0.0308
948.00,0.0308
947.00,0.0309
946.00,0.0310
945.00,0.0311
944.00,0.0312
943.00,0.0313
942.00,0.0314
941.00,0.0315
940.00,0.0316
939.00,0.0316
938.00,0.0316
937.00,0.0316
936.00,0.0317
935.00,0.0317
934.00,0.0317
933.00,0.0317
932.00,0.0316
931.00,0.0315
930.00,0.0314
929.00,0.0313
928.00,0.0313
927.00,0.0313
926.00,0.0314
925.00,0.0315
924.00,0.0316
923.00,0.0317
922.00,0.0318
921.00,0.0319
920.00,0.0321
919.00,0.0323
918.00,0.0326
917.00,0.0327
916.00,0.0329
915.00,0.0329
914.00,0.0330
913.00,0.0330
912.00,0.0331
911.00,0.0330
910.00,0.0328
909.00,0.0326
908.00,0.0323
907.00,0.0321
906.00,0.0319
905.00,0.0317
904.00,0.0315
903.00,0.0313
902.00,0.0311
901.00,0.0310
900.00,0.0310
899.00,0.0309
898.00,0.0307
897.00,0.0305
896.00,0.0302
895.00,0.0300
894.00,0.0300
893.00,0.0300
892.00,0.0301
891.00,0.0301
890.00,0.0300
889.00,0.0298
888.00,0.0297
887.00,0.0296
886.00,0.0296
885.00,0.0296
884.00,0.0296
883.00,0.0296
882.00,0.0296
881.00,0.0297
880.00,0.0297
879.00,0.0297
878.00,0.0295
877.00,0.0292
876.00,0.0290
875.00,0.0288
874.00,0.0287
873.00,0.0287
872.00,0.0286
871.00,0.0285
870.00,0.0284
869.00,0.0283
868.00,0.0283
867.00,0.0282
866.00,0.0281
865.00,0.0281
864.00,0.0281
863.00,0.0281
862.00,0.0283
861.00,0.0284
860.00,0.0284
859.00,0.0284
858.00,0.0283
857.00,0.0282
856.00,0.0282
855.00,0.0283
854.00,0.0283
853.00,0.0282
852.00,0.0282
851.00,0.0281
850.00,0.0281
849.00,0.0281
848.00,0.0282
847.00,0.0282
846.00,0.0284
845.00,0.0285
844.00,0.0287
843.00,0.0289
842.00,0.0290
841.00,0.0289
840.00,0.0289
839.00,0.0290
838.00,0.0293
837.00,0.0296
836.00,0.0299
835.00,0.0301
834.00,0.0301
833.00,0.0299
832.00,0.0298
831.00,0.0298
830.00,0.0298
829.00,0.0298
828.00,0.0297
827.00,0.0296
826.00,0.0295
825.00,0.0296
824.00,0.0297
823.00,0.0299
822.00,0.0300
821.00,0.0301
820.00,0.0301
819.00,0.0301
818.00,0.0303
817.00,0.0306
816.00,0.0307
815.00,0.0307
814.00,0.0305
813.00,0.0302
812.00,0.0302
811.00,0.0304
810.00,0.0308
809.00,0.0312
808.00,0.0315
807.00,0.0317
806.00,0.0318
805.00,0.0318
804.00,0.0319
803.00,0.0321
802.00,0.0324
801.00,0.0327
800.00,0.0330
799.00,0.0332
798.00,0.0332
797.00,0.0333
796.00,0.0334
795.00,0.0335
794.00,0.0337
793.00,0.0338
792.00,0.0339
791.00,0.0341
790.00,0.0342
789.00,0.0342
788.00,0.0340
787.00,0.0340
786.00,0.0340
785.00,0.0342
784.00,0.0343
783.00,0.0343
782.00,0.0343
781.00,0.0343
780.00,0.0344
779.00,0.0343
778.00,0.0342
777.00,0.0341
776.00,0.0341
775.00,0.0342
774.00,0.0342
773.00,0.0343
772.00,0.0345
771.00,0.0346
770.00,0.0346
769.00,0.0345
768.00,0.0343
767.00,0.0340
766.00,0.0339
765.00,0.0338
764.00,0.0339
763.00,0.0340
762.00,0.0340
761.00,0.0341
760.00,0.0343
759.00,0.0346
758.00,0.0349
757.00,0.0351
756.00,0.0353
755.00,0.0354
754.00,0.0353
753.00,0.0353
752.00,0.0353
751.00,0.0354
750.00,0.0355
749.00,0.0356
748.00,0.0355
747.00,0.0353
746.00,0.0350
745.00,0.0347
744.00,0.0347
743.00,0.0348
742.00,0.0350
741.00,0.0349
740.00,0.0348
739.00,0.0346
738.00,0.0345
737.00,0.0346
736.00,0.0347
735.00,0.0347
734.00,0.0345
733.00,0.0343
732.00,0.0342
731.00,0.0343
730.00,0.0345
729.00,0.0348
728.00,0.0351
727.00,0.0352
726.00,0.0351
725.00,0.0350
724.00,0.0348
723.00,0.0347
722.00,0.0347
721.00,0.0347
720.00,0.0348
719.00,0.0349
718.00,0.0350
717.00,0.0351
716.00,0.0352
715.00,0.0353
714.00,0.0355
713.00,0.0358
712.00,0.0361
711.00,0.0364
710.00,0.0366
709.00,0.0366
708.00,0.0366
707.00,0.0367
706.00,0.0370
705.00,0.0374
704.00,0.0378
703.00,0.0380
702.00,0.0380
701.00,0.0380
700.00,0.0382
699.00,0.0383
698.00,0.0385
697.00,0.0385
696.00,0.0385
695.00,0.0384
694.00,0.0385
693.00,0.0387
692.00,0.0391
691.00,0.0393
690.00,0.0394
689.00,0.0391
688.00,0.0387
687.00,0.0384
686.00,0.0383
685.00,0.0382
684.00,0.0381
683.00,0.0382
682.00,0.0386
681.00,0.0393
680.00,0.0399
679.00,0.0400
678.00,0.0398
677.00,0.0394
676.00,0.0392
675.00,0.0391
674.00,0.0392
673.00,0.0394
672.00,0.0394
671.00,0.0393
670.00,0.0391
669.00,0.0396
668.00,0.0414
667.00,0.0428
666.00,0.0428
665.00,0.0422
664.00,0.0414
663.00,0.0403
662.00,0.0395
661.00,0.0395
660.00,0.0405
659.00,0.0419
658.00,0.0428
657.00,0.0426
656.00,0.0418
655.00,0.0411
654.00,0.0409
653.00,0.0411
652.00,0.0415
651.00,0.0416
650.00,0.0416
