Created as New Dataset,
cm-1,A
4000.00,0.0155
3999.00,0.0155
3998.00,0.0155
3997.00,0.0156
3996.00,0.0156
3995.00,0.0156
3994.00,0.0156
3993.00,0.0156
3992.00,0.0156
3991.00,0.0156
3990.00,0.0155
3989.00,0.0155
3988.00,0.0154
3987.00,0.0154
3986.00,0.0154
3985.00,0.0155
3984.00,0.0155
3983.00,0.0155
3982.00,0.0155
3981.00,0.0156
3980.00,0.0156
3979.00,0.0157
3978.00,0.0157
3977.00,0.0157
3976.00,0.0157
3975.00,0.0157
3974.00,0.0157
3973.00,0.0157
3972.00,0.0157
3971.00,0.0156
3970.00,0.0155
3969.00,0.0155
3968.00,0.0154
3967.00,0.0154
3966.00,0.0155
3965.00,0.0155
3964.00,0.0156
3963.00,0.0156
3962.00,0.0157
3961.00,0.0157
3960.00,0.0157
3959.00,0.0157
3958.00,0.0157
3957.00,0.0156
3956.00,0.0156
3955.00,0.0156
3954.00,0.0156
3953.00,0.0156
3952.00,0.0157
3951.00,0.0157
3950.00,0.0158
3949.00,0.0158
3948.00,0.0159
3947.00,0.0159
3946.00,0.0160
3945.00,0.0161
3944.00,0.0161
3943.00,0.0160
3942.00,0.0159
3941.00,0.0159
3940.00,0.0159
3939.00,0.0158
3938.00,0.0157
3937.00,0.0156
3936.00,0.0157
3935.00,0.0158
3934.00,0.0158
3933.00,0.0159
3932.00,0.0159
3931.00,0.0160
3930.00,0.0160
3929.00,0.0160
3928.00,0.0161
3927.00,0.0161
3926.00,0.0160
3925.00,0.0160
3924.00,0.0160
3923.00,0.0160
3922.00,0.0161
3921.00,0.0161
3920.00,0.0160
3919.00,0.0160
3918.00,0.0160
3917.00,0.0160
3916.00,0.0159
3915.00,0.0158
3914.00,0.0158
3913.00,0.0157
3912.00,0.0156
3911.00,0.0155
3910.00,0.0155
3909.00,0.0156
3908.00,0.0158
3907.00,0.0160
3906.00,0.0162
3905.00,0.0163
3904.00,0.0164
3903.00,0.0166
3902.00,0.0169
3901.00,0.0170
3900.00,0.0169
3899.00,0.0166
3898.00,0.0164
3897.00,0.0162
3896.00,0.0162
3895.00,0.0162
3894.00,0.0162
3893.00,0.0162
3892.00,0.0161
3891.00,0.0159
3890.00,0.0159
3889.00,0.0162
3888.00,0.0164
3887.00,0.0164
3886.00,0.0161
3885.00,0.0161
3884.00,0.0164
3883.00,0.0168
3882.00,0.0170
3881.00,0.0167
3880.00,0.0163
3879.00,0.0161
3878.00,0.0162
3877.00,0.0164
3876.00,0.0164
3875.00,0.0162
3874.00,0.0160
3873.00,0.0163
3872.00,0.0166
3871.00,0.0166
3870.00,0.0163
3869.00,0.0162
3868.00,0.0164
3867.00,0.0167
3866.00,0.0167
3865.00,0.0165
3864.00,0.0163
3863.00,0.0163
3862.00,0.0163
3861.00,0.0162
3860.00,0.0160
3859.00,0.0158
3858.00,0.0157
3857.00,0.0159
3856.00,0.0161
3855.00,0.0161
3854.00,0.0159
3853.00,0.0160
3852.00,0.0163
3851.00,0.0165
3850.00,0.0165
3849.00,0.0163
3848.00,0.0160
3847.00,0.0159
3846.00,0.0159
3845.00,0.0159
3844.00,0.0159
3843.00,0.0159
3842.00,0.0161
3841.00,0.0163
3840.00,0.0165
3839.00,0.0166
3838.00,0.0166
3837.00,0.0166
3836.00,0.0166
3835.00,0.0166
3834.00,0.0165
3833.00,0.0164
3832.00,0.0161
3831.00,0.0160
3830.00,0.0160
3829.00,0.0161
3828.00,0.0161
3827.00,0.0160
3826.00,0.0158
3825.00,0.0160
3824.00,0.0163
3823.00,0.0165
3822.00,0.0163
3821.00,0.0160
3820.00,0.0160
3819.00,0.0164
3818.00,0.0166
3817.00,0.0163
3816.00,0.0158
3815.00,0.0157
3814.00,0.0158
3813.00,0.0159
3812.00,0.0158
3811.00,0.0156
3810.00,0.0155
3809.00,0.0156
3808.00,0.0155
3807.00,0.0153
3806.00,0.0153
3805.00,0.0157
3804.00,0.0161
3803.00,0.0162
3802.00,0.0159
3801.00,0.0158
3800.00,0.0160
3799.00,0.0164
3798.00,0.0164
3797.00,0.0162
3796.00,0.0158
3795.00,0.0156
3794.00,0.0156
3793.00,0.0156
3792.00,0.0155
3791.00,0.0154
3790.00,0.0153
3789.00,0.0154
3788.00,0.0154
3787.00,0.0155
3786.00,0.0155
3785.00,0.0154
3784.00,0.0155
3783.00,0.0156
3782.00,0.0157
3781.00,0.0158
3780.00,0.0156
3779.00,0.0155
3778.00,0.0155
3777.00,0.0155
3776.00,0.0155
3775.00,0.0154
3774.00,0.0153
3773.00,0.0154
3772.00,0.0154
3771.00,0.0154
3770.00,0.0154
3769.00,0.0156
3768.00,0.0158
3767.00,0.0159
3766.00,0.0158
3765.00,0.0156
3764.00,0.0156
3763.00,0.0158
3762.00,0.0160
3761.00,0.0160
3760.00,0.0160
3759.00,0.0159
3758.00,0.0159
3757.00,0.0158
3756.00,0.0158
3755.00,0.0158
3754.00,0.0158
3753.00,0.0157
3752.00,0.0157
3751.00,0.0159
3750.00,0.0161
3749.00,0.0163
3748.00,0.0165
3747.00,0.0169
3746.00,0.0169
3745.00,0.0164
3744.00,0.0159
3743.00,0.0159
3742.00,0.0161
3741.00,0.0162
3740.00,0.0161
3739.00,0.0161
3738.00,0.0162
3737.00,0.0163
3736.00,0.0165
3735.00,0.0167
3734.00,0.0169
3733.00,0.0167
3732.00,0.0164
3731.00,0.0160
3730.00,0.0159
3729.00,0.0160
3728.00,0.0160
3727.00,0.0160
3726.00,0.0160
3725.00,0.0162
3724.00,0.0164
3723.00,0.0165
3722.00,0.0164
3721.00,0.0164
3720.00,0.0164
3719.00,0.0164
3718.00,0.0163
3717.00,0.0163
3716.00,0.0164
3715.00,0.0166
3714.00,0.0169
3713.00,0.0170
3712.00,0.0173
3711.00,0.0177
3710.00,0.0180
3709.00,0.0182
3708.00,0.0182
3707.00,0.0182
3706.00,0.0183
3705.00,0.0185
3704.00,0.0188
3703.00,0.0191
3702.00,0.0194
3701.00,0.0196
3700.00,0.0199
3699.00,0.0201
3698.00,0.0203
3697.00,0.0203
3696.00,0.0203
3695.00,0.0203
3694.00,0.0205
3693.00,0.0206
3692.00,0.0207
3691.00,0.0208
3690.00,0.0209
3689.00,0.0209
3688.00,0.0207
3687.00,0.0205
3686.00,0.0204
3685.00,0.0201
3684.00,0.0198
3683.00,0.0195
3682.00,0.0194
3681.00,0.0192
3680.00,0.0191
3679.00,0.0192
3678.00,0.0195
3677.00,0.0199
3676.00,0.0200
3675.00,0.0200
3674.00,0.0201
3673.00,0.0204
3672.00,0.0205
3671.00,0.0203
3670.00,0.0201
3669.00,0.0201
3668.00,0.0202
3667.00,0.0202
3666.00,0.0201
3665.00,0.0199
3664.00,0.0197
3663.00,0.0197
3662.00,0.0197
3661.00,0.0198
3660.00,0.0200
3659.00,0.0203
3658.00,0.0206
3657.00,0.0209
3656.00,0.0211
3655.00,0.0215
3654.00,0.0219
3653.00,0.0223
3652.00,0.0224
3651.00,0.0224
3650.00,0.0226
3649.00,0.0233
3648.00,0.0237
3647.00,0.0237
3646.00,0.0233
3645.00,0.0228
3644.00,0.0224
3643.00,0.0221
3642.00,0.0218
3641.00,0.0216
3640.00,0.0215
3639.00,0.0214
3638.00,0.0214
3637.00,0.0214
3636.00,0.0215
3635.00,0.0215
3634.00,0.0214
3633.00,0.0214
3632.00,0.0218
3631.00,0.0223
3630.00,0.0226
3629.00,0.0228
3628.00,0.0232
3627.00,0.0235
3626.00,0.0237
3625.00,0.0238
3624.00,0.0239
3623.00,0.0243
3622.00,0.0247
3621.00,0.0252
3620.00,0.0254
3619.00,0.0254
3618.00,0.0252
3617.00,0.0250
3616.00,0.0247
3615.00,0.0243
3614.00,0.0238
3613.00,0.0234
3612.00,0.0232
3611.00,0.0232
3610.00,0.0232
3609.00,0.0231
3608.00,0.0229
3607.00,0.0228
3606.00,0.0227
3605.00,0.0226
3604.00,0.0225
3603.00,0.0224
3602.00,0.0224
3601.00,0.0224
3600.00,0.0224
3599.00,0.0225
3598.00,0.0226
3597.00,0.0226
3596.00,0.0227
3595.00,0.0227
3594.00,0.0227
3593.00,0.0226
3592.00,0.0226
3591.00,0.0227
3590.00,0.0229
3589.00,0.0230
3588.00,0.0232
3587.00,0.0234
3586.00,0.0235
3585.00,0.0234
3584.00,0.0233
3583.00,0.0230
3582.00,0.0229
3581.00,0.0228
3580.00,0.0228
3579.00,0.0228
3578.00,0.0228
3577.00,0.0227
3576.00,0.0227
3575.00,0.0226
3574.00,0.0226
3573.00,0.0226
3572.00,0.0227
3571.00,0.0229
3570.00,0.0232
3569.00,0.0235
3568.00,0.0238
3567.00,0.0240
3566.00,0.0242
3565.00,0.0243
3564.00,0.0242
3563.00,0.0240
3562.00,0.0237
3561.00,0.0235
3560.00,0.0234
3559.00,0.0233
3558.00,0.0233
3557.00,0.0232
3556.00,0.0233
3555.00,0.0233
3554.00,0.0234
3553.00,0.0235
3552.00,0.0236
3551.00,0.0237
3550.00,0.0237
3549.00,0.0238
3548.00,0.0238
3547.00,0.0239
3546.00,0.0240
3545.00,0.0241
3544.00,0.0241
3543.00,0.0240
3542.00,0.0240
3541.00,0.0239
3540.00,0.0238
3539.00,0.0238
3538.00,0.0239
3537.00,0.0239
3536.00,0.0239
3535.00,0.0240
3534.00,0.0240
3533.00,0.0239
3532.00,0.0240
3531.00,0.0240
3530.00,0.0241
3529.00,0.0242
3528.00,0.0244
3527.00,0.0245
3526.00,0.0246
3525.00,0.0246
3524.00,0.0247
3523.00,0.0246
3522.00,0.0246
3521.00,0.0246
3520.00,0.0246
3519.00,0.0246
3518.00,0.0246
3517.00,0.0246
3516.00,0.0247
3515.00,0.0247
3514.00,0.0247
3513.00,0.0248
3512.00,0.0249
3511.00,0.0250
3510.00,0.0251
3509.00,0.0251
3508.00,0.0251
3507.00,0.0251
3506.00,0.0251
3505.00,0.0251
3504.00,0.0251
3503.00,0.0252
3502.00,0.0253
3501.00,0.0254
3500.00,0.0254
3499.00,0.0254
3498.00,0.0253
3497.00,0.0253
3496.00,0.0253
3495.00,0.0254
3494.00,0.0254
3493.00,0.0255
3492.00,0.0255
3491.00,0.0255
3490.00,0.0255
3489.00,0.0255
3488.00,0.0255
3487.00,0.0256
3486.00,0.0257
3485.00,0.0257
3484.00,0.0258
3483.00,0.0259
3482.00,0.0260
3481.00,0.0260
3480.00,0.0261
3479.00,0.0261
3478.00,0.0260
3477.00,0.0260
3476.00,0.0260
3475.00,0.0260
3474.00,0.0260
3473.00,0.0261
3472.00,0.0262
3471.00,0.0262
3470.00,0.0263
3469.00,0.0263
3468.00,0.0263
3467.00,0.0263
3466.00,0.0264
3465.00,0.0264
3464.00,0.0264
3463.00,0.0264
3462.00,0.0264
3461.00,0.0264
3460.00,0.0264
3459.00,0.0263
3458.00,0.0263
3457.00,0.0264
3456.00,0.0264
3455.00,0.0265
3454.00,0.0266
3453.00,0.0267
3452.00,0.0267
3451.00,0.0267
3450.00,0.0268
3449.00,0.0268
3448.00,0.0268
3447.00,0.0269
3446.00,0.0269
3445.00,0.0270
3444.00,0.0270
3443.00,0.0270
3442.00,0.0270
3441.00,0.0270
3440.00,0.0270
3439.00,0.0270
3438.00,0.0270
3437.00,0.0270
3436.00,0.0270
3435.00,0.0270
3434.00,0.0270
3433.00,0.0271
3432.00,0.0271
3431.00,0.0272
3430.00,0.0272
3429.00,0.0272
3428.00,0.0272
3427.00,0.0272
3426.00,0.0273
3425.00,0.0273
3424.00,0.0273
3423.00,0.0274
3422.00,0.0274
3421.00,0.0274
3420.00,0.0275
3419.00,0.0275
3418.00,0.0275
3417.00,0.0275
3416.00,0.0275
3415.00,0.0274
3414.00,0.0275
3413.00,0.0276
3412.00,0.0276
3411.00,0.0277
3410.00,0.0277
3409.00,0.0277
3408.00,0.0278
3407.00,0.0278
3406.00,0.0279
3405.00,0.0279
3404.00,0.0279
3403.00,0.0279
3402.00,0.0279
3401.00,0.0279
3400.00,0.0280
3399.00,0.0279
3398.00,0.0279
3397.00,0.0279
3396.00,0.0279
3395.00,0.0279
3394.00,0.0279
3393.00,0.0280
3392.00,0.0280
3391.00,0.0281
3390.00,0.0281
3389.00,0.0280
3388.00,0.0280
3387.00,0.0280
3386.00,0.0281
3385.00,0.0281
3384.00,0.0281
3383.00,0.0281
3382.00,0.0280
3381.00,0.0280
3380.00,0.0280
3379.00,0.0280
3378.00,0.0280
3377.00,0.0280
3376.00,0.0280
3375.00,0.0281
3374.00,0.0282
3373.00,0.0282
3372.00,0.0282
3371.00,0.0282
3370.00,0.0282
3369.00,0.0282
3368.00,0.0282
3367.00,0.0283
3366.00,0.0283
3365.00,0.0284
3364.00,0.0284
3363.00,0.0284
3362.00,0.0284
3361.00,0.0284
3360.00,0.0284
3359.00,0.0284
3358.00,0.0284
3357.00,0.0284
3356.00,0.0284
3355.00,0.0284
3354.00,0.0284
3353.00,0.0284
3352.00,0.0283
3351.00,0.0283
3350.00,0.0283
3349.00,0.0283
3348.00,0.0283
3347.00,0.0283
3346.00,0.0283
3345.00,0.0284
3344.00,0.0285
3343.00,0.0285
3342.00,0.0285
3341.00,0.0285
3340.00,0.0285
3339.00,0.0285
3338.00,0.0285
3337.00,0.0285
3336.00,0.0285
3335.00,0.0285
3334.00,0.0285
3333.00,0.0285
3332.00,0.0285
3331.00,0.0285
3330.00,0.0285
3329.00,0.0285
3328.00,0.0285
3327.00,0.0285
3326.00,0.0285
3325.00,0.0285
3324.00,0.0285
3323.00,0.0285
3322.00,0.0285
3321.00,0.0285
3320.00,0.0285
3319.00,0.0285
3318.00,0.0285
3317.00,0.0285
3316.00,0.0285
3315.00,0.0285
3314.00,0.0285
3313.00,0.0285
3312.00,0.0285
3311.00,0.0285
3310.00,0.0286
3309.00,0.0286
3308.00,0.0286
3307.00,0.0286
3306.00,0.0286
3305.00,0.0286
3304.00,0.0286
3303.00,0.0286
3302.00,0.0286
3301.00,0.0285
3300.00,0.0284
3299.00,0.0284
3298.00,0.0284
3297.00,0.0284
3296.00,0.0285
3295.00,0.0285
3294.00,0.0285
3293.00,0.0285
3292.00,0.0286
3291.00,0.0286
3290.00,0.0286
3289.00,0.0286
3288.00,0.0286
3287.00,0.0285
3286.00,0.0286
3285.00,0.0286
3284.00,0.0286
3283.00,0.0286
3282.00,0.0286
3281.00,0.0286
3280.00,0.0285
3279.00,0.0285
3278.00,0.0286
3277.00,0.0286
3276.00,0.0286
3275.00,0.0286
3274.00,0.0286
3273.00,0.0287
3272.00,0.0287
3271.00,0.0286
3270.00,0.0286
3269.00,0.0286
3268.00,0.0285
3267.00,0.0285
3266.00,0.0286
3265.00,0.0286
3264.00,0.0286
3263.00,0.0286
3262.00,0.0286
3261.00,0.0285
3260.00,0.0285
3259.00,0.0285
3258.00,0.0286
3257.00,0.0286
3256.00,0.0287
3255.00,0.0287
3254.00,0.0286
3253.00,0.0286
3252.00,0.0285
3251.00,0.0284
3250.00,0.0284
3249.00,0.0285
3248.00,0.0285
3247.00,0.0286
3246.00,0.0287
3245.00,0.0287
3244.00,0.0287
3243.00,0.0287
3242.00,0.0287
3241.00,0.0286
3240.00,0.0286
3239.00,0.0286
3238.00,0.0286
3237.00,0.0285
3236.00,0.0285
3235.00,0.0286
3234.00,0.0286
3233.00,0.0286
3232.00,0.0287
3231.00,0.0287
3230.00,0.0287
3229.00,0.0287
3228.00,0.0286
3227.00,0.0286
3226.00,0.0286
3225.00,0.0286
3224.00,0.0286
3223.00,0.0286
3222.00,0.0286
3221.00,0.0286
3220.00,0.0286
3219.00,0.0285
3218.00,0.0285
3217.00,0.0284
3216.00,0.0284
3215.00,0.0284
3214.00,0.0284
3213.00,0.0284
3212.00,0.0285
3211.00,0.0285
3210.00,0.0285
3209.00,0.0285
3208.00,0.0284
3207.00,0.0284
3206.00,0.0284
3205.00,0.0284
3204.00,0.0284
3203.00,0.0283
3202.00,0.0283
3201.00,0.0283
3200.00,0.0283
3199.00,0.0283
3198.00,0.0283
3197.00,0.0283
3196.00,0.0283
3195.00,0.0282
3194.00,0.0281
3193.00,0.0281
3192.00,0.0281
3191.00,0.0281
3190.00,0.0281
3189.00,0.0281
3188.00,0.0281
3187.00,0.0281
3186.00,0.0281
3185.00,0.0281
3184.00,0.0281
3183.00,0.0281
3182.00,0.0281
3181.00,0.0281
3180.00,0.0281
3179.00,0.0280
3178.00,0.0280
3177.00,0.0279
3176.00,0.0279
3175.00,0.0279
3174.00,0.0280
3173.00,0.0280
3172.00,0.0280
3171.00,0.0280
3170.00,0.0279
3169.00,0.0278
3168.00,0.0278
3167.00,0.0277
3166.00,0.0277
3165.00,0.0277
3164.00,0.0277
3163.00,0.0277
3162.00,0.0277
3161.00,0.0276
3160.00,0.0276
3159.00,0.0277
3158.00,0.0277
3157.00,0.0277
3156.00,0.0276
3155.00,0.0276
3154.00,0.0275
3153.00,0.0275
3152.00,0.0275
3151.00,0.0275
3150.00,0.0275
3149.00,0.0275
3148.00,0.0275
3147.00,0.0275
3146.00,0.0274
3145.00,0.0274
3144.00,0.0274
3143.00,0.0274
3142.00,0.0274
3141.00,0.0273
3140.00,0.0273
3139.00,0.0273
3138.00,0.0273
3137.00,0.0273
3136.00,0.0273
3135.00,0.0272
3134.00,0.0272
3133.00,0.0272
3132.00,0.0272
3131.00,0.0272
3130.00,0.0271
3129.00,0.0271
3128.00,0.0271
3127.00,0.0271
3126.00,0.0271
3125.00,0.0271
3124.00,0.0271
3123.00,0.0270
3122.00,0.0270
3121.00,0.0270
3120.00,0.0270
3119.00,0.0270
3118.00,0.0269
3117.00,0.0269
3116.00,0.0269
3115.00,0.0269
3114.00,0.0269
3113.00,0.0269
3112.00,0.0269
3111.00,0.0269
3110.00,0.0268
3109.00,0.0268
3108.00,0.0268
3107.00,0.0268
3106.00,0.0268
3105.00,0.0267
3104.00,0.0267
3103.00,0.0267
3102.00,0.0267
3101.00,0.0267
3100.00,0.0267
3099.00,0.0267
3098.00,0.0267
3097.00,0.0267
3096.00,0.0267
3095.00,0.0267
3094.00,0.0266
3093.00,0.0266
3092.00,0.0266
3091.00,0.0266
3090.00,0.0265
3089.00,0.0265
3088.00,0.0265
3087.00,0.0265
3086.00,0.0265
3085.00,0.0265
3084.00,0.0264
3083.00,0.0264
3082.00,0.0264
3081.00,0.0264
3080.00,0.0264
3079.00,0.0263
3078.00,0.0263
3077.00,0.0263
3076.00,0.0263
3075.00,0.0262
3074.00,0.0262
3073.00,0.0262
3072.00,0.0262
3071.00,0.0263
3070.00,0.0263
3069.00,0.0263
3068.00,0.0263
3067.00,0.0263
3066.00,0.0263
3065.00,0.0263
3064.00,0.0263
3063.00,0.0263
3062.00,0.0262
3061.00,0.0261
3060.00,0.0261
3059.00,0.0261
3058.00,0.0261
3057.00,0.0261
3056.00,0.0261
3055.00,0.0261
3054.00,0.0261
3053.00,0.0260
3052.00,0.0260
3051.00,0.0260
3050.00,0.0259
3049.00,0.0259
3048.00,0.0259
3047.00,0.0258
3046.00,0.0258
3045.00,0.0258
3044.00,0.0258
3043.00,0.0258
3042.00,0.0258
3041.00,0.0257
3040.00,0.0257
3039.00,0.0256
3038.00,0.0256
3037.00,0.0256
3036.00,0.0256
3035.00,0.0256
3034.00,0.0256
3033.00,0.0257
3032.00,0.0257
3031.00,0.0256
3030.00,0.0256
3029.00,0.0255
3028.00,0.0254
3027.00,0.0253
3026.00,0.0253
3025.00,0.0253
3024.00,0.0252
3023.00,0.0252
3022.00,0.0253
3021.00,0.0253
3020.00,0.0253
3019.00,0.0252
3018.00,0.0252
3017.00,0.0252
3016.00,0.0252
3015.00,0.0252
3014.00,0.0252
3013.00,0.0253
3012.00,0.0253
3011.00,0.0252
3010.00,0.0252
3009.00,0.0252
3008.00,0.0251
3007.00,0.0251
3006.00,0.0251
3005.00,0.0251
3004.00,0.0251
3003.00,0.0251
3002.00,0.0251
3001.00,0.0251
3000.00,0.0251
2999.00,0.0250
2998.00,0.0250
2997.00,0.0250
2996.00,0.0249
2995.00,0.0250
2994.00,0.0250
2993.00,0.0250
2992.00,0.0250
2991.00,0.0249
2990.00,0.0248
2989.00,0.0248
2988.00,0.0248
2987.00,0.0248
2986.00,0.0248
2985.00,0.0248
2984.00,0.0249
2983.00,0.0249
2982.00,0.0249
2981.00,0.0248
2980.00,0.0248
2979.00,0.0247
2978.00,0.0247
2977.00,0.0247
2976.00,0.0246
2975.00,0.0246
2974.00,0.0246
2973.00,0.0245
2972.00,0.0245
2971.00,0.0244
2970.00,0.0243
2969.00,0.0242
2968.00,0.0242
2967.00,0.0241
2966.00,0.0241
2965.00,0.0240
2964.00,0.0239
2963.00,0.0238
2962.00,0.0238
2961.00,0.0238
2960.00,0.0237
2959.00,0.0237
2958.00,0.0237
2957.00,0.0236
2956.00,0.0236
2955.00,0.0236
2954.00,0.0236
2953.00,0.0236
2952.00,0.0237
2951.00,0.0237
2950.00,0.0237
2949.00,0.0236
2948.00,0.0236
2947.00,0.0236
2946.00,0.0236
2945.00,0.0236
2944.00,0.0235
2943.00,0.0235
2942.00,0.0234
2941.00,0.0234
2940.00,0.0233
2939.00,0.0232
2938.00,0.0232
2937.00,0.0231
2936.00,0.0231
2935.00,0.0230
2934.00,0.0229
2933.00,0.0228
2932.00,0.0228
2931.00,0.0227
2930.00,0.0226
2929.00,0.0225
2928.00,0.0223
2927.00,0.0222
2926.00,0.0221
2925.00,0.0220
2924.00,0.0220
2923.00,0.0220
2922.00,0.0220
2921.00,0.0220
2920.00,0.0220
2919.00,0.0219
2918.00,0.0218
2917.00,0.0217
2916.00,0.0218
2915.00,0.0220
2914.00,0.0222
2913.00,0.0223
2912.00,0.0225
2911.00,0.0226
2910.00,0.0227
2909.00,0.0228
2908.00,0.0228
2907.00,0.0229
2906.00,0.0229
2905.00,0.0229
2904.00,0.0229
2903.00,0.0229
2902.00,0.0230
2901.00,0.0230
2900.00,0.0230
2899.00,0.0230
2898.00,0.0230
2897.00,0.0229
2896.00,0.0229
2895.00,0.0229
2894.00,0.0229
2893.00,0.0230
2892.00,0.0230
2891.00,0.0230
2890.00,0.0230
2889.00,0.0231
2888.00,0.0230
2887.00,0.0230
2886.00,0.0230
2885.00,0.0230
2884.00,0.0231
2883.00,0.0231
2882.00,0.0231
2881.00,0.0231
2880.00,0.0231
2879.00,0.0230
2878.00,0.0229
2877.00,0.0229
2876.00,0.0228
2875.00,0.0227
2874.00,0.0227
2873.00,0.0226
2872.00,0.0225
2871.00,0.0225
2870.00,0.0225
2869.00,0.0225
2868.00,0.0224
2867.00,0.0224
2866.00,0.0224
2865.00,0.0224
2864.00,0.0223
2863.00,0.0223
2862.00,0.0223
2861.00,0.0222
2860.00,0.0222
2859.00,0.0221
2858.00,0.0221
2857.00,0.0220
2856.00,0.0219
2855.00,0.0219
2854.00,0.0218
2853.00,0.0218
2852.00,0.0218
2851.00,0.0217
2850.00,0.0217
2849.00,0.0217
2848.00,0.0217
2847.00,0.0218
2846.00,0.0219
2845.00,0.0220
2844.00,0.0220
2843.00,0.0221
2842.00,0.0222
2841.00,0.0223
2840.00,0.0223
2839.00,0.0224
2838.00,0.0224
2837.00,0.0224
2836.00,0.0224
2835.00,0.0223
2834.00,0.0223
2833.00,0.0223
2832.00,0.0223
2831.00,0.0223
2830.00,0.0223
2829.00,0.0223
2828.00,0.0223
2827.00,0.0223
2826.00,0.0223
2825.00,0.0222
2824.00,0.0222
2823.00,0.0221
2822.00,0.0221
2821.00,0.0222
2820.00,0.0222
2819.00,0.0222
2818.00,0.0222
2817.00,0.0222
2816.00,0.0221
2815.00,0.0221
2814.00,0.0221
2813.00,0.0221
2812.00,0.0221
2811.00,0.0221
2810.00,0.0220
2809.00,0.0220
2808.00,0.0220
2807.00,0.0220
2806.00,0.0220
2805.00,0.0220
2804.00,0.0220
2803.00,0.0220
2802.00,0.0219
2801.00,0.0219
2800.00,0.0219
2799.00,0.0219
2798.00,0.0219
2797.00,0.0219
2796.00,0.0218
2795.00,0.0218
2794.00,0.0218
2793.00,0.0218
2792.00,0.0218
2791.00,0.0218
2790.00,0.0218
2789.00,0.0218
2788.00,0.0218
2787.00,0.0218
2786.00,0.0217
2785.00,0.0217
2784.00,0.0217
2783.00,0.0217
2782.00,0.0217
2781.00,0.0217
2780.00,0.0216
2779.00,0.0216
2778.00,0.0216
2777.00,0.0216
2776.00,0.0216
2775.00,0.0217
2774.00,0.0217
2773.00,0.0216
2772.00,0.0216
2771.00,0.0215
2770.00,0.0215
2769.00,0.0215
2768.00,0.0215
2767.00,0.0215
2766.00,0.0215
2765.00,0.0215
2764.00,0.0215
2763.00,0.0215
2762.00,0.0215
2761.00,0.0214
2760.00,0.0214
2759.00,0.0214
2758.00,0.0214
2757.00,0.0214
2756.00,0.0214
2755.00,0.0214
2754.00,0.0214
2753.00,0.0213
2752.00,0.0213
2751.00,0.0213
2750.00,0.0213
2749.00,0.0213
2748.00,0.0214
2747.00,0.0214
2746.00,0.0213
2745.00,0.0212
2744.00,0.0212
2743.00,0.0212
2742.00,0.0212
2741.00,0.0212
2740.00,0.0212
2739.00,0.0212
2738.00,0.0212
2737.00,0.0211
2736.00,0.0211
2735.00,0.0210
2734.00,0.0210
2733.00,0.0210
2732.00,0.0210
2731.00,0.0210
2730.00,0.0210
2729.00,0.0210
2728.00,0.0210
2727.00,0.0210
2726.00,0.0210
2725.00,0.0210
2724.00,0.0210
2723.00,0.0210
2722.00,0.0210
2721.00,0.0210
2720.00,0.0209
2719.00,0.0209
2718.00,0.0209
2717.00,0.0209
2716.00,0.0209
2715.00,0.0209
2714.00,0.0209
2713.00,0.0209
2712.00,0.0209
2711.00,0.0209
2710.00,0.0209
2709.00,0.0209
2708.00,0.0209
2707.00,0.0209
2706.00,0.0208
2705.00,0.0208
2704.00,0.0208
2703.00,0.0208
2702.00,0.0208
2701.00,0.0208
2700.00,0.0208
2699.00,0.0207
2698.00,0.0207
2697.00,0.0207
2696.00,0.0207
2695.00,0.0207
2694.00,0.0207
2693.00,0.0207
2692.00,0.0207
2691.00,0.0207
2690.00,0.0207
2689.00,0.0207
2688.00,0.0207
2687.00,0.0207
2686.00,0.0207
2685.00,0.0206
2684.00,0.0206
2683.00,0.0206
2682.00,0.0206
2681.00,0.0206
2680.00,0.0206
2679.00,0.0206
2678.00,0.0207
2677.00,0.0206
2676.00,0.0206
2675.00,0.0206
2674.00,0.0206
2673.00,0.0206
2672.00,0.0205
2671.00,0.0205
2670.00,0.0205
2669.00,0.0205
2668.00,0.0205
2667.00,0.0205
2666.00,0.0205
2665.00,0.0205
2664.00,0.0205
2663.00,0.0205
2662.00,0.0205
2661.00,0.0206
2660.00,0.0206
2659.00,0.0206
2658.00,0.0206
2657.00,0.0206
2656.00,0.0206
2655.00,0.0206
2654.00,0.0206
2653.00,0.0206
2652.00,0.0206
2651.00,0.0206
2650.00,0.0206
2649.00,0.0206
2648.00,0.0207
2647.00,0.0207
2646.00,0.0207
2645.00,0.0207
2644.00,0.0207
2643.00,0.0207
2642.00,0.0208
2641.00,0.0208
2640.00,0.0207
2639.00,0.0207
2638.00,0.0207
2637.00,0.0207
2636.00,0.0207
2635.00,0.0207
2634.00,0.0207
2633.00,0.0207
2632.00,0.0207
2631.00,0.0207
2630.00,0.0207
2629.00,0.0207
2628.00,0.0207
2627.00,0.0207
2626.00,0.0207
2625.00,0.0207
2624.00,0.0207
2623.00,0.0207
2622.00,0.0206
2621.00,0.0206
2620.00,0.0206
2619.00,0.0206
2618.00,0.0207
2617.00,0.0207
2616.00,0.0208
2615.00,0.0208
2614.00,0.0208
2613.00,0.0208
2612.00,0.0207
2611.00,0.0207
2610.00,0.0206
2609.00,0.0206
2608.00,0.0206
2607.00,0.0205
2606.00,0.0205
2605.00,0.0206
2604.00,0.0206
2603.00,0.0206
2602.00,0.0206
2601.00,0.0206
2600.00,0.0206
2599.00,0.0206
2598.00,0.0206
2597.00,0.0206
2596.00,0.0206
2595.00,0.0206
2594.00,0.0206
2593.00,0.0207
2592.00,0.0207
2591.00,0.0207
2590.00,0.0207
2589.00,0.0206
2588.00,0.0206
2587.00,0.0206
2586.00,0.0205
2585.00,0.0205
2584.00,0.0205
2583.00,0.0205
2582.00,0.0206
2581.00,0.0206
2580.00,0.0206
2579.00,0.0205
2578.00,0.0205
2577.00,0.0206
2576.00,0.0206
2575.00,0.0206
2574.00,0.0206
2573.00,0.0206
2572.00,0.0206
2571.00,0.0206
2570.00,0.0205
2569.00,0.0205
2568.00,0.0205
2567.00,0.0205
2566.00,0.0205
2565.00,0.0206
2564.00,0.0206
2563.00,0.0206
2562.00,0.0206
2561.00,0.0206
2560.00,0.0205
2559.00,0.0205
2558.00,0.0205
2557.00,0.0206
2556.00,0.0206
2555.00,0.0207
2554.00,0.0207
2553.00,0.0207
2552.00,0.0206
2551.00,0.0206
2550.00,0.0206
2549.00,0.0205
2548.00,0.0205
2547.00,0.0205
2546.00,0.0204
2545.00,0.0204
2544.00,0.0204
2543.00,0.0205
2542.00,0.0206
2541.00,0.0206
2540.00,0.0207
2539.00,0.0207
2538.00,0.0206
2537.00,0.0206
2536.00,0.0206
2535.00,0.0206
2534.00,0.0206
2533.00,0.0206
2532.00,0.0206
2531.00,0.0205
2530.00,0.0205
2529.00,0.0206
2528.00,0.0206
2527.00,0.0206
2526.00,0.0206
2525.00,0.0206
2524.00,0.0206
2523.00,0.0206
2522.00,0.0206
2521.00,0.0206
2520.00,0.0206
2519.00,0.0206
2518.00,0.0205
2517.00,0.0205
2516.00,0.0204
2515.00,0.0204
2514.00,0.0204
2513.00,0.0204
2512.00,0.0205
2511.00,0.0205
2510.00,0.0205
2509.00,0.0204
2508.00,0.0204
2507.00,0.0204
2506.00,0.0204
2505.00,0.0204
2504.00,0.0204
2503.00,0.0204
2502.00,0.0205
2501.00,0.0205
2500.00,0.0205
2499.00,0.0204
2498.00,0.0204
2497.00,0.0203
2496.00,0.0203
2495.00,0.0203
2494.00,0.0203
2493.00,0.0203
2492.00,0.0204
2491.00,0.0204
2490.00,0.0204
2489.00,0.0204
2488.00,0.0204
2487.00,0.0204
2486.00,0.0203
2485.00,0.0203
2484.00,0.0203
2483.00,0.0203
2482.00,0.0204
2481.00,0.0204
2480.00,0.0204
2479.00,0.0204
2478.00,0.0203
2477.00,0.0203
2476.00,0.0203
2475.00,0.0203
2474.00,0.0203
2473.00,0.0203
2472.00,0.0203
2471.00,0.0203
2470.00,0.0203
2469.00,0.0203
2468.00,0.0203
2467.00,0.0203
2466.00,0.0202
2465.00,0.0202
2464.00,0.0202
2463.00,0.0202
2462.00,0.0202
2461.00,0.0202
2460.00,0.0202
2459.00,0.0203
2458.00,0.0204
2457.00,0.0204
2456.00,0.0203
2455.00,0.0202
2454.00,0.0202
2453.00,0.0202
2452.00,0.0202
2451.00,0.0202
2450.00,0.0203
2449.00,0.0203
2448.00,0.0202
2447.00,0.0202
2446.00,0.0202
2445.00,0.0202
2444.00,0.0202
2443.00,0.0201
2442.00,0.0201
2441.00,0.0201
2440.00,0.0201
2439.00,0.0201
2438.00,0.0201
2437.00,0.0201
2436.00,0.0201
2435.00,0.0201
2434.00,0.0201
2433.00,0.0201
2432.00,0.0201
2431.00,0.0201
2430.00,0.0201
2429.00,0.0201
2428.00,0.0201
2427.00,0.0201
2426.00,0.0201
2425.00,0.0201
2424.00,0.0201
2423.00,0.0200
2422.00,0.0199
2421.00,0.0199
2420.00,0.0198
2419.00,0.0198
2418.00,0.0198
2417.00,0.0199
2416.00,0.0199
2415.00,0.0199
2414.00,0.0200
2413.00,0.0200
2412.00,0.0200
2411.00,0.0199
2410.00,0.0199
2409.00,0.0199
2408.00,0.0199
2407.00,0.0198
2406.00,0.0198
2405.00,0.0198
2404.00,0.0198
2403.00,0.0197
2402.00,0.0197
2401.00,0.0197
2400.00,0.0196
2399.00,0.0196
2398.00,0.0196
2397.00,0.0197
2396.00,0.0197
2395.00,0.0197
2394.00,0.0197
2393.00,0.0197
2392.00,0.0197
2391.00,0.0196
2390.00,0.0196
2389.00,0.0195
2388.00,0.0195
2387.00,0.0194
2386.00,0.0193
2385.00,0.0192
2384.00,0.0190
2383.00,0.0189
2382.00,0.0187
2381.00,0.0186
2380.00,0.0185
2379.00,0.0184
2378.00,0.0184
2377.00,0.0185
2376.00,0.0186
2375.00,0.0187
2374.00,0.0189
2373.00,0.0190
2372.00,0.0190
2371.00,0.0190
2370.00,0.0188
2369.00,0.0187
2368.00,0.0187
2367.00,0.0187
2366.00,0.0188
2365.00,0.0188
2364.00,0.0187
2363.00,0.0187
2362.00,0.0187
2361.00,0.0188
2360.00,0.0189
2359.00,0.0188
2358.00,0.0188
2357.00,0.0188
2356.00,0.0188
2355.00,0.0189
2354.00,0.0189
2353.00,0.0188
2352.00,0.0188
2351.00,0.0189
2350.00,0.0188
2349.00,0.0186
2348.00,0.0181
2347.00,0.0178
2346.00,0.0178
2345.00,0.0181
2344.00,0.0186
2343.00,0.0189
2342.00,0.0191
2341.00,0.0192
2340.00,0.0192
2339.00,0.0191
2338.00,0.0190
2337.00,0.0190
2336.00,0.0191
2335.00,0.0192
2334.00,0.0192
2333.00,0.0192
2332.00,0.0193
2331.00,0.0194
2330.00,0.0195
2329.00,0.0196
2328.00,0.0197
2327.00,0.0196
2326.00,0.0196
2325.00,0.0195
2324.00,0.0196
2323.00,0.0196
2322.00,0.0197
2321.00,0.0197
2320.00,0.0197
2319.00,0.0196
2318.00,0.0196
2317.00,0.0196
2316.00,0.0195
2315.00,0.0195
2314.00,0.0194
2313.00,0.0195
2312.00,0.0195
2311.00,0.0195
2310.00,0.0194
2309.00,0.0194
2308.00,0.0194
2307.00,0.0194
2306.00,0.0195
2305.00,0.0195
2304.00,0.0195
2303.00,0.0195
2302.00,0.0194
2301.00,0.0194
2300.00,0.0194
2299.00,0.0194
2298.00,0.0194
2297.00,0.0193
2296.00,0.0193
2295.00,0.0193
2294.00,0.0193
2293.00,0.0194
2292.00,0.0194
2291.00,0.0194
2290.00,0.0194
2289.00,0.0193
2288.00,0.0194
2287.00,0.0194
2286.00,0.0194
2285.00,0.0195
2284.00,0.0195
2283.00,0.0194
2282.00,0.0194
2281.00,0.0194
2280.00,0.0194
2279.00,0.0194
2278.00,0.0194
2277.00,0.0194
2276.00,0.0194
2275.00,0.0194
2274.00,0.0194
2273.00,0.0194
2272.00,0.0194
2271.00,0.0194
2270.00,0.0193
2269.00,0.0193
2268.00,0.0193
2267.00,0.0194
2266.00,0.0194
2265.00,0.0194
2264.00,0.0193
2263.00,0.0192
2262.00,0.0191
2261.00,0.0191
2260.00,0.0191
2259.00,0.0193
2258.00,0.0194
2257.00,0.0195
2256.00,0.0195
2255.00,0.0195
2254.00,0.0194
2253.00,0.0193
2252.00,0.0193
2251.00,0.0193
2250.00,0.0193
2249.00,0.0192
2248.00,0.0192
2247.00,0.0192
2246.00,0.0192
2245.00,0.0192
2244.00,0.0192
2243.00,0.0193
2242.00,0.0193
2241.00,0.0193
2240.00,0.0193
2239.00,0.0193
2238.00,0.0193
2237.00,0.0194
2236.00,0.0193
2235.00,0.0193
2234.00,0.0193
2233.00,0.0194
2232.00,0.0194
2231.00,0.0195
2230.00,0.0195
2229.00,0.0195
2228.00,0.0195
2227.00,0.0195
2226.00,0.0196
2225.00,0.0195
2224.00,0.0194
2223.00,0.0194
2222.00,0.0194
2221.00,0.0194
2220.00,0.0194
2219.00,0.0194
2218.00,0.0193
2217.00,0.0193
2216.00,0.0194
2215.00,0.0194
2214.00,0.0193
2213.00,0.0193
2212.00,0.0192
2211.00,0.0191
2210.00,0.0191
2209.00,0.0192
2208.00,0.0192
2207.00,0.0192
2206.00,0.0193
2205.00,0.0194
2204.00,0.0195
2203.00,0.0195
2202.00,0.0195
2201.00,0.0194
2200.00,0.0194
2199.00,0.0195
2198.00,0.0195
2197.00,0.0195
2196.00,0.0195
2195.00,0.0195
2194.00,0.0195
2193.00,0.0194
2192.00,0.0194
2191.00,0.0194
2190.00,0.0195
2189.00,0.0196
2188.00,0.0196
2187.00,0.0195
2186.00,0.0193
2185.00,0.0193
2184.00,0.0193
2183.00,0.0194
2182.00,0.0194
2181.00,0.0195
2180.00,0.0195
2179.00,0.0196
2178.00,0.0195
2177.00,0.0193
2176.00,0.0191
2175.00,0.0191
2174.00,0.0193
2173.00,0.0196
2172.00,0.0197
2171.00,0.0196
2170.00,0.0193
2169.00,0.0190
2168.00,0.0188
2167.00,0.0189
2166.00,0.0190
2165.00,0.0192
2164.00,0.0194
2163.00,0.0196
2162.00,0.0197
2161.00,0.0196
2160.00,0.0192
2159.00,0.0188
2158.00,0.0186
2157.00,0.0186
2156.00,0.0188
2155.00,0.0189
2154.00,0.0190
2153.00,0.0189
2152.00,0.0188
2151.00,0.0187
2150.00,0.0187
2149.00,0.0187
2148.00,0.0186
2147.00,0.0185
2146.00,0.0184
2145.00,0.0183
2144.00,0.0182
2143.00,0.0183
2142.00,0.0184
2141.00,0.0185
2140.00,0.0184
2139.00,0.0184
2138.00,0.0183
2137.00,0.0182
2136.00,0.0182
2135.00,0.0181
2134.00,0.0181
2133.00,0.0181
2132.00,0.0181
2131.00,0.0181
2130.00,0.0182
2129.00,0.0182
2128.00,0.0182
2127.00,0.0181
2126.00,0.0180
2125.00,0.0180
2124.00,0.0180
2123.00,0.0180
2122.00,0.0181
2121.00,0.0182
2120.00,0.0183
2119.00,0.0184
2118.00,0.0185
2117.00,0.0186
2116.00,0.0186
2115.00,0.0185
2114.00,0.0185
2113.00,0.0184
2112.00,0.0182
2111.00,0.0182
2110.00,0.0182
2109.00,0.0182
2108.00,0.0182
2107.00,0.0181
2106.00,0.0181
2105.00,0.0181
2104.00,0.0181
2103.00,0.0181
2102.00,0.0182
2101.00,0.0182
2100.00,0.0182
2099.00,0.0182
2098.00,0.0182
2097.00,0.0182
2096.00,0.0181
2095.00,0.0180
2094.00,0.0180
2093.00,0.0180
2092.00,0.0181
2091.00,0.0182
2090.00,0.0182
2089.00,0.0183
2088.00,0.0182
2087.00,0.0182
2086.00,0.0181
2085.00,0.0181
2084.00,0.0181
2083.00,0.0180
2082.00,0.0179
2081.00,0.0179
2080.00,0.0180
2079.00,0.0180
2078.00,0.0181
2077.00,0.0182
2076.00,0.0182
2075.00,0.0182
2074.00,0.0181
2073.00,0.0180
2072.00,0.0180
2071.00,0.0179
2070.00,0.0180
2069.00,0.0180
2068.00,0.0181
2067.00,0.0181
2066.00,0.0182
2065.00,0.0182
2064.00,0.0182
2063.00,0.0180
2062.00,0.0180
2061.00,0.0180
2060.00,0.0180
2059.00,0.0180
2058.00,0.0181
2057.00,0.0181
2056.00,0.0181
2055.00,0.0181
2054.00,0.0182
2053.00,0.0183
2052.00,0.0183
2051.00,0.0183
2050.00,0.0183
2049.00,0.0183
2048.00,0.0182
2047.00,0.0181
2046.00,0.0181
2045.00,0.0181
2044.00,0.0181
2043.00,0.0180
2042.00,0.0180
2041.00,0.0181
2040.00,0.0182
2039.00,0.0183
2038.00,0.0183
2037.00,0.0184
2036.00,0.0184
2035.00,0.0184
2034.00,0.0183
2033.00,0.0182
2032.00,0.0182
2031.00,0.0182
2030.00,0.0182
2029.00,0.0183
2028.00,0.0183
2027.00,0.0183
2026.00,0.0182
2025.00,0.0181
2024.00,0.0181
2023.00,0.0181
2022.00,0.0181
2021.00,0.0182
2020.00,0.0182
2019.00,0.0181
2018.00,0.0181
2017.00,0.0181
2016.00,0.0181
2015.00,0.0181
2014.00,0.0181
2013.00,0.0180
2012.00,0.0178
2011.00,0.0176
2010.00,0.0174
2009.00,0.0174
2008.00,0.0173
2007.00,0.0173
2006.00,0.0173
2005.00,0.0175
2004.00,0.0177
2003.00,0.0178
2002.00,0.0179
2001.00,0.0180
2000.00,0.0180
1999.00,0.0181
1998.00,0.0181
1997.00,0.0182
1996.00,0.0182
1995.00,0.0183
1994.00,0.0183
1993.00,0.0183
1992.00,0.0182
1991.00,0.0181
1990.00,0.0180
1989.00,0.0179
1988.00,0.0179
1987.00,0.0178
1986.00,0.0177
1985.00,0.0176
1984.00,0.0177
1983.00,0.0179
1982.00,0.0181
1981.00,0.0183
1980.00,0.0183
1979.00,0.0181
1978.00,0.0180
1977.00,0.0180
1976.00,0.0180
1975.00,0.0181
1974.00,0.0181
1973.00,0.0180
1972.00,0.0180
1971.00,0.0179
1970.00,0.0179
1969.00,0.0179
1968.00,0.0179
1967.00,0.0178
1966.00,0.0176
1965.00,0.0174
1964.00,0.0174
1963.00,0.0175
1962.00,0.0176
1961.00,0.0177
1960.00,0.0176
1959.00,0.0174
1958.00,0.0172
1957.00,0.0171
1956.00,0.0169
1955.00,0.0167
1954.00,0.0167
1953.00,0.0167
1952.00,0.0168
1951.00,0.0168
1950.00,0.0167
1949.00,0.0166
1948.00,0.0167
1947.00,0.0168
1946.00,0.0171
1945.00,0.0173
1944.00,0.0173
1943.00,0.0171
1942.00,0.0170
1941.00,0.0169
1940.00,0.0169
1939.00,0.0169
1938.00,0.0168
1937.00,0.0168
1936.00,0.0168
1935.00,0.0168
1934.00,0.0168
1933.00,0.0168
1932.00,0.0167
1931.00,0.0167
1930.00,0.0167
1929.00,0.0167
1928.00,0.0167
1927.00,0.0166
1926.00,0.0167
1925.00,0.0169
1924.00,0.0170
1923.00,0.0168
1922.00,0.0166
1921.00,0.0165
1920.00,0.0165
1919.00,0.0165
1918.00,0.0164
1917.00,0.0164
1916.00,0.0163
1915.00,0.0162
1914.00,0.0162
1913.00,0.0161
1912.00,0.0162
1911.00,0.0162
1910.00,0.0162
1909.00,0.0162
1908.00,0.0162
1907.00,0.0161
1906.00,0.0161
1905.00,0.0161
1904.00,0.0161
1903.00,0.0160
1902.00,0.0160
1901.00,0.0160
1900.00,0.0159
1899.00,0.0159
1898.00,0.0158
1897.00,0.0158
1896.00,0.0158
1895.00,0.0159
1894.00,0.0159
1893.00,0.0159
1892.00,0.0159
1891.00,0.0158
1890.00,0.0157
1889.00,0.0156
1888.00,0.0156
1887.00,0.0156
1886.00,0.0156
1885.00,0.0156
1884.00,0.0156
1883.00,0.0155
1882.00,0.0155
1881.00,0.0155
1880.00,0.0155
1879.00,0.0154
1878.00,0.0153
1877.00,0.0152
1876.00,0.0152
1875.00,0.0151
1874.00,0.0151
1873.00,0.0152
1872.00,0.0153
1871.00,0.0153
1870.00,0.0152
1869.00,0.0151
1868.00,0.0151
1867.00,0.0150
1866.00,0.0151
1865.00,0.0151
1864.00,0.0150
1863.00,0.0149
1862.00,0.0148
1861.00,0.0148
1860.00,0.0148
1859.00,0.0147
1858.00,0.0147
1857.00,0.0147
1856.00,0.0148
1855.00,0.0148
1854.00,0.0147
1853.00,0.0146
1852.00,0.0145
1851.00,0.0145
1850.00,0.0145
1849.00,0.0145
1848.00,0.0145
1847.00,0.0145
1846.00,0.0145
1845.00,0.0144
1844.00,0.0142
1843.00,0.0141
1842.00,0.0141
1841.00,0.0142
1840.00,0.0142
1839.00,0.0142
1838.00,0.0142
1837.00,0.0141
1836.00,0.0141
1835.00,0.0140
1834.00,0.0141
1833.00,0.0142
1832.00,0.0143
1831.00,0.0143
1830.00,0.0141
1829.00,0.0140
1828.00,0.0140
1827.00,0.0140
1826.00,0.0139
1825.00,0.0138
1824.00,0.0137
1823.00,0.0136
1822.00,0.0135
1821.00,0.0135
1820.00,0.0134
1819.00,0.0134
1818.00,0.0133
1817.00,0.0132
1816.00,0.0132
1815.00,0.0132
1814.00,0.0132
1813.00,0.0132
1812.00,0.0131
1811.00,0.0131
1810.00,0.0130
1809.00,0.0129
1808.00,0.0130
1807.00,0.0130
1806.00,0.0130
1805.00,0.0131
1804.00,0.0132
1803.00,0.0133
1802.00,0.0132
1801.00,0.0132
1800.00,0.0131
1799.00,0.0130
1798.00,0.0130
1797.00,0.0130
1796.00,0.0131
1795.00,0.0132
1794.00,0.0132
1793.00,0.0132
1792.00,0.0131
1791.00,0.0131
1790.00,0.0132
1789.00,0.0132
1788.00,0.0132
1787.00,0.0132
1786.00,0.0132
1785.00,0.0132
1784.00,0.0134
1783.00,0.0135
1782.00,0.0137
1781.00,0.0137
1780.00,0.0138
1779.00,0.0138
1778.00,0.0139
1777.00,0.0139
1776.00,0.0141
1775.00,0.0143
1774.00,0.0145
1773.00,0.0145
1772.00,0.0145
1771.00,0.0145
1770.00,0.0145
1769.00,0.0146
1768.00,0.0146
1767.00,0.0146
1766.00,0.0147
1765.00,0.0148
1764.00,0.0150
1763.00,0.0151
1762.00,0.0151
1761.00,0.0151
1760.00,0.0152
1759.00,0.0153
1758.00,0.0154
1757.00,0.0154
1756.00,0.0153
1755.00,0.0153
1754.00,0.0154
1753.00,0.0154
1752.00,0.0154
1751.00,0.0155
1750.00,0.0158
1749.00,0.0160
1748.00,0.0162
1747.00,0.0163
1746.00,0.0164
1745.00,0.0165
1744.00,0.0167
1743.00,0.0169
1742.00,0.0171
1741.00,0.0172
1740.00,0.0172
1739.00,0.0173
1738.00,0.0175
1737.00,0.0177
1736.00,0.0180
1735.00,0.0180
1734.00,0.0181
1733.00,0.0184
1732.00,0.0187
1731.00,0.0190
1730.00,0.0192
1729.00,0.0194
1728.00,0.0195
1727.00,0.0196
1726.00,0.0197
1725.00,0.0199
1724.00,0.0200
1723.00,0.0201
1722.00,0.0203
1721.00,0.0206
1720.00,0.0208
1719.00,0.0208
1718.00,0.0208
1717.00,0.0210
1716.00,0.0212
1715.00,0.0214
1714.00,0.0215
1713.00,0.0216
1712.00,0.0217
1711.00,0.0217
1710.00,0.0217
1709.00,0.0218
1708.00,0.0220
1707.00,0.0222
1706.00,0.0223
1705.00,0.0224
1704.00,0.0226
1703.00,0.0227
1702.00,0.0228
1701.00,0.0227
1700.00,0.0226
1699.00,0.0225
1698.00,0.0227
1697.00,0.0229
1696.00,0.0229
1695.00,0.0228
1694.00,0.0227
1693.00,0.0228
1692.00,0.0230
1691.00,0.0230
1690.00,0.0230
1689.00,0.0231
1688.00,0.0232
1687.00,0.0234
1686.00,0.0235
1685.00,0.0235
1684.00,0.0237
1683.00,0.0239
1682.00,0.0240
1681.00,0.0240
1680.00,0.0241
1679.00,0.0241
1678.00,0.0241
1677.00,0.0241
1676.00,0.0242
1675.00,0.0243
1674.00,0.0244
1673.00,0.0247
1672.00,0.0249
1671.00,0.0251
1670.00,0.0252
1669.00,0.0254
1668.00,0.0255
1667.00,0.0255
1666.00,0.0256
1665.00,0.0257
1664.00,0.0258
1663.00,0.0259
1662.00,0.0260
1661.00,0.0262
1660.00,0.0263
1659.00,0.0263
1658.00,0.0264
1657.00,0.0265
1656.00,0.0267
1655.00,0.0269
1654.00,0.0272
1653.00,0.0276
1652.00,0.0278
1651.00,0.0277
1650.00,0.0279
1649.00,0.0280
1648.00,0.0281
1647.00,0.0283
1646.00,0.0286
1645.00,0.0287
1644.00,0.0287
1643.00,0.0287
1642.00,0.0288
1641.00,0.0289
1640.00,0.0289
1639.00,0.0290
1638.00,0.0292
1637.00,0.0294
1636.00,0.0298
1635.00,0.0301
1634.00,0.0302
1633.00,0.0302
1632.00,0.0302
1631.00,0.0303
1630.00,0.0305
1629.00,0.0307
1628.00,0.0308
1627.00,0.0310
1626.00,0.0311
1625.00,0.0313
1624.00,0.0314
1623.00,0.0316
1622.00,0.0317
1621.00,0.0317
1620.00,0.0317
1619.00,0.0317
1618.00,0.0318
1617.00,0.0319
1616.00,0.0320
1615.00,0.0322
1614.00,0.0323
1613.00,0.0324
1612.00,0.0324
1611.00,0.0325
1610.00,0.0326
1609.00,0.0328
1608.00,0.0329
1607.00,0.0330
1606.00,0.0331
1605.00,0.0331
1604.00,0.0332
1603.00,0.0333
1602.00,0.0334
1601.00,0.0335
1600.00,0.0335
1599.00,0.0336
1598.00,0.0336
1597.00,0.0337
1596.00,0.0338
1595.00,0.0339
1594.00,0.0339
1593.00,0.0339
1592.00,0.0340
1591.00,0.0340
1590.00,0.0341
1589.00,0.0342
1588.00,0.0342
1587.00,0.0341
1586.00,0.0341
1585.00,0.0341
1584.00,0.0341
1583.00,0.0341
1582.00,0.0342
1581.00,0.0342
1580.00,0.0342
1579.00,0.0342
1578.00,0.0343
1577.00,0.0343
1576.00,0.0343
1575.00,0.0344
1574.00,0.0344
1573.00,0.0344
1572.00,0.0344
1571.00,0.0343
1570.00,0.0343
1569.00,0.0344
1568.00,0.0344
1567.00,0.0343
1566.00,0.0342
1565.00,0.0341
1564.00,0.0340
1563.00,0.0339
1562.00,0.0340
1561.00,0.0339
1560.00,0.0337
1559.00,0.0341
1558.00,0.0344
1557.00,0.0341
1556.00,0.0337
1555.00,0.0334
1554.00,0.0332
1553.00,0.0331
1552.00,0.0330
1551.00,0.0329
1550.00,0.0329
1549.00,0.0327
1548.00,0.0325
1547.00,0.0323
1546.00,0.0321
1545.00,0.0320
1544.00,0.0319
1543.00,0.0318
1542.00,0.0315
1541.00,0.0313
1540.00,0.0313
1539.00,0.0314
1538.00,0.0311
1537.00,0.0309
1536.00,0.0308
1535.00,0.0308
1534.00,0.0308
1533.00,0.0308
1532.00,0.0307
1531.00,0.0305
1530.00,0.0303
1529.00,0.0301
1528.00,0.0300
1527.00,0.0300
1526.00,0.0299
1525.00,0.0298
1524.00,0.0297
1523.00,0.0296
1522.00,0.0294
1521.00,0.0294
1520.00,0.0294
1519.00,0.0294
1518.00,0.0294
1517.00,0.0294
1516.00,0.0293
1515.00,0.0291
1514.00,0.0288
1513.00,0.0286
1512.00,0.0284
1511.00,0.0284
1510.00,0.0285
1509.00,0.0286
1508.00,0.0287
1507.00,0.0288
1506.00,0.0285
1505.00,0.0279
1504.00,0.0276
1503.00,0.0275
1502.00,0.0273
1501.00,0.0272
1500.00,0.0271
1499.00,0.0269
1498.00,0.0267
1497.00,0.0266
1496.00,0.0267
1495.00,0.0267
1494.00,0.0268
1493.00,0.0269
1492.00,0.0270
1491.00,0.0272
1490.00,0.0274
1489.00,0.0275
1488.00,0.0275
1487.00,0.0273
1486.00,0.0270
1485.00,0.0268
1484.00,0.0267
1483.00,0.0266
1482.00,0.0266
1481.00,0.0266
1480.00,0.0266
1479.00,0.0267
1478.00,0.0267
1477.00,0.0268
1476.00,0.0269
1475.00,0.0270
1474.00,0.0269
1473.00,0.0269
1472.00,0.0270
1471.00,0.0269
1470.00,0.0269
1469.00,0.0268
1468.00,0.0268
1467.00,0.0269
1466.00,0.0269
1465.00,0.0269
1464.00,0.0270
1463.00,0.0270
1462.00,0.0270
1461.00,0.0270
1460.00,0.0271
1459.00,0.0270
1458.00,0.0270
1457.00,0.0271
1456.00,0.0273
1455.00,0.0274
1454.00,0.0275
1453.00,0.0275
1452.00,0.0275
1451.00,0.0276
1450.00,0.0277
1449.00,0.0278
1448.00,0.0280
1447.00,0.0281
1446.00,0.0281
1445.00,0.0281
1444.00,0.0281
1443.00,0.0282
1442.00,0.0282
1441.00,0.0282
1440.00,0.0282
1439.00,0.0282
1438.00,0.0282
1437.00,0.0284
1436.00,0.0286
1435.00,0.0288
1434.00,0.0288
1433.00,0.0288
1432.00,0.0289
1431.00,0.0290
1430.00,0.0291
1429.00,0.0292
1428.00,0.0292
1427.00,0.0292
1426.00,0.0292
1425.00,0.0292
1424.00,0.0293
1423.00,0.0294
1422.00,0.0294
1421.00,0.0294
1420.00,0.0295
1419.00,0.0297
1418.00,0.0299
1417.00,0.0300
1416.00,0.0300
1415.00,0.0300
1414.00,0.0299
1413.00,0.0299
1412.00,0.0299
1411.00,0.0300
1410.00,0.0300
1409.00,0.0299
1408.00,0.0299
1407.00,0.0300
1406.00,0.0301
1405.00,0.0302
1404.00,0.0303
1403.00,0.0303
1402.00,0.0304
1401.00,0.0304
1400.00,0.0305
1399.00,0.0306
1398.00,0.0308
1397.00,0.0309
1396.00,0.0310
1395.00,0.0310
1394.00,0.0310
1393.00,0.0309
1392.00,0.0309
1391.00,0.0308
1390.00,0.0308
1389.00,0.0309
1388.00,0.0310
1387.00,0.0312
1386.00,0.0313
1385.00,0.0313
1384.00,0.0313
1383.00,0.0313
1382.00,0.0313
1381.00,0.0313
1380.00,0.0314
1379.00,0.0315
1378.00,0.0315
1377.00,0.0315
1376.00,0.0316
1375.00,0.0318
1374.00,0.0319
1373.00,0.0319
1372.00,0.0318
1371.00,0.0317
1370.00,0.0317
1369.00,0.0317
1368.00,0.0317
1367.00,0.0317
1366.00,0.0316
1365.00,0.0316
1364.00,0.0317
1363.00,0.0318
1362.00,0.0319
1361.00,0.0319
1360.00,0.0319
1359.00,0.0318
1358.00,0.0317
1357.00,0.0316
1356.00,0.0316
1355.00,0.0315
1354.00,0.0315
1353.00,0.0315
1352.00,0.0315
1351.00,0.0314
1350.00,0.0314
1349.00,0.0314
1348.00,0.0315
1347.00,0.0315
1346.00,0.0315
1345.00,0.0314
1344.00,0.0314
1343.00,0.0314
1342.00,0.0314
1341.00,0.0314
1340.00,0.0315
1339.00,0.0316
1338.00,0.0317
1337.00,0.0316
1336.00,0.0315
1335.00,0.0314
1334.00,0.0313
1333.00,0.0313
1332.00,0.0312
1331.00,0.0312
1330.00,0.0312
1329.00,0.0311
1328.00,0.0311
1327.00,0.0310
1326.00,0.0310
1325.00,0.0310
1324.00,0.0310
1323.00,0.0310
1322.00,0.0310
1321.00,0.0310
1320.00,0.0310
1319.00,0.0311
1318.00,0.0311
1317.00,0.0311
1316.00,0.0311
1315.00,0.0312
1314.00,0.0312
1313.00,0.0312
1312.00,0.0312
1311.00,0.0312
1310.00,0.0311
1309.00,0.0311
1308.00,0.0311
1307.00,0.0311
1306.00,0.0311
1305.00,0.0311
1304.00,0.0311
1303.00,0.0311
1302.00,0.0311
1301.00,0.0311
1300.00,0.0312
1299.00,0.0312
1298.00,0.0312
1297.00,0.0312
1296.00,0.0313
1295.00,0.0313
1294.00,0.0313
1293.00,0.0313
1292.00,0.0314
1291.00,0.0314
1290.00,0.0315
1289.00,0.0317
1288.00,0.0318
1287.00,0.0319
1286.00,0.0319
1285.00,0.0319
1284.00,0.0319
1283.00,0.0319
1282.00,0.0320
1281.00,0.0321
1280.00,0.0321
1279.00,0.0322
1278.00,0.0323
1277.00,0.0324
1276.00,0.0325
1275.00,0.0326
1274.00,0.0326
1273.00,0.0327
1272.00,0.0328
1271.00,0.0329
1270.00,0.0330
1269.00,0.0330
1268.00,0.0331
1267.00,0.0332
1266.00,0.0333
1265.00,0.0333
1264.00,0.0333
1263.00,0.0334
1262.00,0.0335
1261.00,0.0337
1260.00,0.0338
1259.00,0.0340
1258.00,0.0342
1257.00,0.0345
1256.00,0.0347
1255.00,0.0350
1254.00,0.0352
1253.00,0.0354
1252.00,0.0356
1251.00,0.0359
1250.00,0.0361
1249.00,0.0363
1248.00,0.0364
1247.00,0.0366
1246.00,0.0367
1245.00,0.0369
1244.00,0.0370
1243.00,0.0372
1242.00,0.0373
1241.00,0.0375
1240.00,0.0376
1239.00,0.0378
1238.00,0.0379
1237.00,0.0380
1236.00,0.0381
1235.00,0.0382
1234.00,0.0383
1233.00,0.0384
1232.00,0.0385
1231.00,0.0387
1230.00,0.0388
1229.00,0.0389
1228.00,0.0390
1227.00,0.0391
1226.00,0.0393
1225.00,0.0394
1224.00,0.0396
1223.00,0.0396
1222.00,0.0396
1221.00,0.0397
1220.00,0.0397
1219.00,0.0399
1218.00,0.0400
1217.00,0.0401
1216.00,0.0402
1215.00,0.0402
1214.00,0.0403
1213.00,0.0404
1212.00,0.0405
1211.00,0.0406
1210.00,0.0407
1209.00,0.0408
1208.00,0.0409
1207.00,0.0411
1206.00,0.0412
1205.00,0.0414
1204.00,0.0415
1203.00,0.0415
1202.00,0.0416
1201.00,0.0417
1200.00,0.0418
1199.00,0.0419
1198.00,0.0420
1197.00,0.0421
1196.00,0.0423
1195.00,0.0424
1194.00,0.0426
1193.00,0.0428
1192.00,0.0429
1191.00,0.0430
1190.00,0.0431
1189.00,0.0433
1188.00,0.0435
1187.00,0.0437
1186.00,0.0438
1185.00,0.0440
1184.00,0.0441
1183.00,0.0442
1182.00,0.0443
1181.00,0.0444
1180.00,0.0445
1179.00,0.0448
1178.00,0.0450
1177.00,0.0452
1176.00,0.0454
1175.00,0.0456
1174.00,0.0457
1173.00,0.0458
1172.00,0.0460
1171.00,0.0462
1170.00,0.0464
1169.00,0.0466
1168.00,0.0469
1167.00,0.0472
1166.00,0.0474
1165.00,0.0476
1164.00,0.0477
1163.00,0.0478
1162.00,0.0477
1161.00,0.0478
1160.00,0.0479
1159.00,0.0480
1158.00,0.0480
1157.00,0.0481
1156.00,0.0481
1155.00,0.0483
1154.00,0.0484
1153.00,0.0486
1152.00,0.0488
1151.00,0.0490
1150.00,0.0493
1149.00,0.0495
1148.00,0.0499
1147.00,0.0502
1146.00,0.0504
1145.00,0.0506
1144.00,0.0508
1143.00,0.0510
1142.00,0.0511
1141.00,0.0513
1140.00,0.0516
1139.00,0.0519
1138.00,0.0523
1137.00,0.0527
1136.00,0.0531
1135.00,0.0534
1134.00,0.0538
1133.00,0.0542
1132.00,0.0545
1131.00,0.0549
1130.00,0.0553
1129.00,0.0557
1128.00,0.0563
1127.00,0.0570
1126.00,0.0576
1125.00,0.0584
1124.00,0.0591
1123.00,0.0599
1122.00,0.0607
1121.00,0.0616
1120.00,0.0626
1119.00,0.0636
1118.00,0.0644
1117.00,0.0650
1116.00,0.0654
1115.00,0.0657
1114.00,0.0658
1113.00,0.0659
1112.00,0.0660
1111.00,0.0662
1110.00,0.0665
1109.00,0.0668
1108.00,0.0673
1107.00,0.0678
1106.00,0.0684
1105.00,0.0689
1104.00,0.0695
1103.00,0.0700
1102.00,0.0705
1101.00,0.0709
1100.00,0.0714
1099.00,0.0718
1098.00,0.0721
1097.00,0.0724
1096.00,0.0727
1095.00,0.0729
1094.00,0.0732
1093.00,0.0734
1092.00,0.0737
1091.00,0.0739
1090.00,0.0741
1089.00,0.0742
1088.00,0.0745
1087.00,0.0747
1086.00,0.0749
1085.00,0.0751
1084.00,0.0754
1083.00,0.0757
1082.00,0.0759
1081.00,0.0760
1080.00,0.0761
1079.00,0.0762
1078.00,0.0763
1077.00,0.0766
1076.00,0.0769
1075.00,0.0772
1074.00,0.0774
1073.00,0.0776
1072.00,0.0779
1071.00,0.0782
1070.00,0.0785
1069.00,0.0788
1068.00,0.0793
1067.00,0.0797
1066.00,0.0801
1065.00,0.0804
1064.00,0.0808
1063.00,0.0811
1062.00,0.0814
1061.00,0.0819
1060.00,0.0824
1059.00,0.0829
1058.00,0.0833
1057.00,0.0837
1056.00,0.0841
1055.00,0.0845
1054.00,0.0851
1053.00,0.0858
1052.00,0.0865
1051.00,0.0872
1050.00,0.0877
1049.00,0.0882
1048.00,0.0888
1047.00,0.0894
1046.00,0.0901
1045.00,0.0907
1044.00,0.0913
1043.00,0.0919
1042.00,0.0926
1041.00,0.0933
1040.00,0.0940
1039.00,0.0947
1038.00,0.0955
1037.00,0.0963
1036.00,0.0970
1035.00,0.0976
1034.00,0.0979
1033.00,0.0980
1032.00,0.0980
1031.00,0.0976
1030.00,0.0971
1029.00,0.0963
1028.00,0.0956
1027.00,0.0947
1026.00,0.0937
1025.00,0.0929
1024.00,0.0922
1023.00,0.0916
1022.00,0.0911
1021.00,0.0907
1020.00,0.0905
1019.00,0.0903
1018.00,0.0902
1017.00,0.0903
1016.00,0.0905
1015.00,0.0907
1014.00,0.0911
1013.00,0.0914
1012.00,0.0918
1011.00,0.0922
1010.00,0.0926
1009.00,0.0929
1008.00,0.0931
1007.00,0.0932
1006.00,0.0933
1005.00,0.0932
1004.00,0.0929
1003.00,0.0925
1002.00,0.0919
1001.00,0.0913
1000.00,0.0906
999.00,0.0897
998.00,0.0888
997.00,0.0877
996.00,0.0864
995.00,0.0852
994.00,0.0840
993.00,0.0829
992.00,0.0819
991.00,0.0809
990.00,0.0798
989.00,0.0788
988.00,0.0780
987.00,0.0773
986.00,0.0766
985.00,0.0759
984.00,0.0751
983.00,0.0743
982.00,0.0736
981.00,0.0730
980.00,0.0724
979.00,0.0718
978.00,0.0712
977.00,0.0706
976.00,0.0700
975.00,0.0695
974.00,0.0690
973.00,0.0686
972.00,0.0683
971.00,0.0681
970.00,0.0678
969.00,0.0675
968.00,0.0672
967.00,0.0669
966.00,0.0665
965.00,0.0661
964.00,0.0658
963.00,0.0655
962.00,0.0652
961.00,0.0649
960.00,0.0647
959.00,0.0644
958.00,0.0641
957.00,0.0639
956.00,0.0638
955.00,0.0638
954.00,0.0639
953.00,0.0638
952.00,0.0637
951.00,0.0637
950.00,0.0637
949.00,0.0638
948.00,0.0639
947.00,0.0642
946.00,0.0644
945.00,0.0647
944.00,0.0650
943.00,0.0653
942.00,0.0657
941.00,0.0660
940.00,0.0663
939.00,0.0664
938.00,0.0664
937.00,0.0663
936.00,0.0662
935.00,0.0662
934.00,0.0660
933.00,0.0657
932.00,0.0654
931.00,0.0651
930.00,0.0648
929.00,0.0647
928.00,0.0646
927.00,0.0647
926.00,0.0648
925.00,0.0650
924.00,0.0653
923.00,0.0656
922.00,0.0661
921.00,0.0665
920.00,0.0671
919.00,0.0678
918.00,0.0684
917.00,0.0691
916.00,0.0697
915.00,0.0700
914.00,0.0702
913.00,0.0702
912.00,0.0700
911.00,0.0696
910.00,0.0691
909.00,0.0685
908.00,0.0678
907.00,0.0671
906.00,0.0663
905.00,0.0656
904.00,0.0649
903.00,0.0642
902.00,0.0636
901.00,0.0631
900.00,0.0626
899.00,0.0621
898.00,0.0616
897.00,0.0610
896.00,0.0604
895.00,0.0599
894.00,0.0594
893.00,0.0589
892.00,0.0586
891.00,0.0582
890.00,0.0579
889.00,0.0575
888.00,0.0572
887.00,0.0570
886.00,0.0567
885.00,0.0564
884.00,0.0560
883.00,0.0557
882.00,0.0554
881.00,0.0552
880.00,0.0549
879.00,0.0546
878.00,0.0543
877.00,0.0541
876.00,0.0539
875.00,0.0538
874.00,0.0537
873.00,0.0535
872.00,0.0533
871.00,0.0529
870.00,0.0526
869.00,0.0523
868.00,0.0522
867.00,0.0521
866.00,0.0519
865.00,0.0516
864.00,0.0514
863.00,0.0513
862.00,0.0511
861.00,0.0510
860.00,0.0509
859.00,0.0509
858.00,0.0509
857.00,0.0509
856.00,0.0509
855.00,0.0509
854.00,0.0508
853.00,0.0508
852.00,0.0507
851.00,0.0507
850.00,0.0506
849.00,0.0506
848.00,0.0507
847.00,0.0508
846.00,0.0509
845.00,0.0510
844.00,0.0511
843.00,0.0511
842.00,0.0512
841.00,0.0513
840.00,0.0515
839.00,0.0518
838.00,0.0520
837.00,0.0522
836.00,0.0524
835.00,0.0524
834.00,0.0525
833.00,0.0525
832.00,0.0525
831.00,0.0526
830.00,0.0528
829.00,0.0529
828.00,0.0530
827.00,0.0531
826.00,0.0532
825.00,0.0533
824.00,0.0534
823.00,0.0536
822.00,0.0539
821.00,0.0541
820.00,0.0543
819.00,0.0544
818.00,0.0545
817.00,0.0546
816.00,0.0547
815.00,0.0547
814.00,0.0548
813.00,0.0548
812.00,0.0550
811.00,0.0553
810.00,0.0557
809.00,0.0563
808.00,0.0570
807.00,0.0577
806.00,0.0584
805.00,0.0590
804.00,0.0597
803.00,0.0604
802.00,0.0611
801.00,0.0619
800.00,0.0626
799.00,0.0631
798.00,0.0633
797.00,0.0634
796.00,0.0635
795.00,0.0635
794.00,0.0635
793.00,0.0634
792.00,0.0633
791.00,0.0633
790.00,0.0632
789.00,0.0631
788.00,0.0631
787.00,0.0630
786.00,0.0630
785.00,0.0632
784.00,0.0634
783.00,0.0636
782.00,0.0637
781.00,0.0638
780.00,0.0640
779.00,0.0641
778.00,0.0640
777.00,0.0639
776.00,0.0637
775.00,0.0635
774.00,0.0633
773.00,0.0631
772.00,0.0629
771.00,0.0626
770.00,0.0624
769.00,0.0622
768.00,0.0622
767.00,0.0621
766.00,0.0622
765.00,0.0623
764.00,0.0624
763.00,0.0624
762.00,0.0624
761.00,0.0624
760.00,0.0626
759.00,0.0630
758.00,0.0634
757.00,0.0638
756.00,0.0640
755.00,0.0641
754.00,0.0642
753.00,0.0642
752.00,0.0643
751.00,0.0644
750.00,0.0644
749.00,0.0644
748.00,0.0642
747.00,0.0639
746.00,0.0637
745.00,0.0636
744.00,0.0635
743.00,0.0633
742.00,0.0631
741.00,0.0629
740.00,0.0628
739.00,0.0628
738.00,0.0628
737.00,0.0628
736.00,0.0627
735.00,0.0625
734.00,0.0622
733.00,0.0620
732.00,0.0620
731.00,0.0620
730.00,0.0621
729.00,0.0619
728.00,0.0618
727.00,0.0617
726.00,0.0618
725.00,0.0619
724.00,0.0621
723.00,0.0621
722.00,0.0622
721.00,0.0624
720.00,0.0626
719.00,0.0627
718.00,0.0627
717.00,0.0627
716.00,0.0627
715.00,0.0630
714.00,0.0634
713.00,0.0640
712.00,0.0645
711.00,0.0648
710.00,0.0649
709.00,0.0650
708.00,0.0653
707.00,0.0659
706.00,0.0667
705.00,0.0676
704.00,0.0685
703.00,0.0691
702.00,0.0696
701.00,0.0700
700.00,0.0706
699.00,0.0714
698.00,0.0722
697.00,0.0728
696.00,0.0733
695.00,0.0734
694.00,0.0733
693.00,0.0731
692.00,0.0730
691.00,0.0731
690.00,0.0733
689.00,0.0733
688.00,0.0731
687.00,0.0729
686.00,0.0728
685.00,0.0729
684.00,0.0730
683.00,0.0730
682.00,0.0729
681.00,0.0729
680.00,0.0728
679.00,0.0728
678.00,0.0729
677.00,0.0731
676.00,0.0734
675.00,0.0737
674.00,0.0738
673.00,0.0737
672.00,0.0734
671.00,0.0731
670.00,0.0729
669.00,0.0736
668.00,0.0754
667.00,0.0763
666.00,0.0758
665.00,0.0750
664.00,0.0743
663.00,0.0737
662.00,0.0734
661.00,0.0734
660.00,0.0738
659.00,0.0745
658.00,0.0750
657.00,0.0752
656.00,0.0753
655.00,0.0753
654.00,0.0752
653.00,0.0751
652.00,0.0750
651.00,0.0750
650.00,0.0749
