Created as New Dataset,
cm-1,A
4000.00,0.0206
3999.00,0.0206
3998.00,0.0205
3997.00,0.0205
3996.00,0.0207
3995.00,0.0207
3994.00,0.0208
3993.00,0.0208
3992.00,0.0208
3991.00,0.0207
3990.00,0.0207
3989.00,0.0207
3988.00,0.0207
3987.00,0.0207
3986.00,0.0207
3985.00,0.0207
3984.00,0.0207
3983.00,0.0207
3982.00,0.0208
3981.00,0.0208
3980.00,0.0208
3979.00,0.0208
3978.00,0.0208
3977.00,0.0208
3976.00,0.0208
3975.00,0.0208
3974.00,0.0209
3973.00,0.0209
3972.00,0.0209
3971.00,0.0208
3970.00,0.0208
3969.00,0.0207
3968.00,0.0206
3967.00,0.0206
3966.00,0.0206
3965.00,0.0207
3964.00,0.0207
3963.00,0.0208
3962.00,0.0208
3961.00,0.0209
3960.00,0.0209
3959.00,0.0210
3958.00,0.0209
3957.00,0.0209
3956.00,0.0209
3955.00,0.0209
3954.00,0.0209
3953.00,0.0210
3952.00,0.0210
3951.00,0.0210
3950.00,0.0210
3949.00,0.0210
3948.00,0.0210
3947.00,0.0211
3946.00,0.0212
3945.00,0.0213
3944.00,0.0213
3943.00,0.0213
3942.00,0.0212
3941.00,0.0211
3940.00,0.0211
3939.00,0.0211
3938.00,0.0210
3937.00,0.0209
3936.00,0.0209
3935.00,0.0210
3934.00,0.0211
3933.00,0.0212
3932.00,0.0213
3931.00,0.0213
3930.00,0.0213
3929.00,0.0213
3928.00,0.0214
3927.00,0.0214
3926.00,0.0214
3925.00,0.0213
3924.00,0.0213
3923.00,0.0213
3922.00,0.0213
3921.00,0.0213
3920.00,0.0212
3919.00,0.0212
3918.00,0.0213
3917.00,0.0213
3916.00,0.0212
3915.00,0.0212
3914.00,0.0212
3913.00,0.0211
3912.00,0.0210
3911.00,0.0209
3910.00,0.0209
3909.00,0.0210
3908.00,0.0212
3907.00,0.0214
3906.00,0.0215
3905.00,0.0215
3904.00,0.0216
3903.00,0.0217
3902.00,0.0220
3901.00,0.0222
3900.00,0.0222
3899.00,0.0220
3898.00,0.0217
3897.00,0.0216
3896.00,0.0215
3895.00,0.0215
3894.00,0.0215
3893.00,0.0214
3892.00,0.0213
3891.00,0.0212
3890.00,0.0212
3889.00,0.0214
3888.00,0.0217
3887.00,0.0217
3886.00,0.0216
3885.00,0.0215
3884.00,0.0218
3883.00,0.0222
3882.00,0.0223
3881.00,0.0221
3880.00,0.0217
3879.00,0.0215
3878.00,0.0216
3877.00,0.0219
3876.00,0.0219
3875.00,0.0218
3874.00,0.0216
3873.00,0.0217
3872.00,0.0220
3871.00,0.0221
3870.00,0.0219
3869.00,0.0217
3868.00,0.0219
3867.00,0.0221
3866.00,0.0221
3865.00,0.0218
3864.00,0.0216
3863.00,0.0216
3862.00,0.0216
3861.00,0.0216
3860.00,0.0215
3859.00,0.0214
3858.00,0.0214
3857.00,0.0216
3856.00,0.0219
3855.00,0.0220
3854.00,0.0219
3853.00,0.0219
3852.00,0.0220
3851.00,0.0221
3850.00,0.0220
3849.00,0.0217
3848.00,0.0214
3847.00,0.0213
3846.00,0.0212
3845.00,0.0213
3844.00,0.0213
3843.00,0.0214
3842.00,0.0216
3841.00,0.0219
3840.00,0.0221
3839.00,0.0222
3838.00,0.0221
3837.00,0.0221
3836.00,0.0221
3835.00,0.0220
3834.00,0.0220
3833.00,0.0218
3832.00,0.0216
3831.00,0.0214
3830.00,0.0214
3829.00,0.0215
3828.00,0.0215
3827.00,0.0214
3826.00,0.0212
3825.00,0.0213
3824.00,0.0217
3823.00,0.0220
3822.00,0.0219
3821.00,0.0216
3820.00,0.0216
3819.00,0.0220
3818.00,0.0222
3817.00,0.0220
3816.00,0.0215
3815.00,0.0212
3814.00,0.0213
3813.00,0.0213
3812.00,0.0212
3811.00,0.0210
3810.00,0.0210
3809.00,0.0211
3808.00,0.0210
3807.00,0.0209
3806.00,0.0209
3805.00,0.0213
3804.00,0.0218
3803.00,0.0220
3802.00,0.0217
3801.00,0.0215
3800.00,0.0216
3799.00,0.0219
3798.00,0.0219
3797.00,0.0216
3796.00,0.0213
3795.00,0.0211
3794.00,0.0212
3793.00,0.0211
3792.00,0.0210
3791.00,0.0209
3790.00,0.0209
3789.00,0.0209
3788.00,0.0209
3787.00,0.0210
3786.00,0.0210
3785.00,0.0210
3784.00,0.0210
3783.00,0.0211
3782.00,0.0213
3781.00,0.0214
3780.00,0.0212
3779.00,0.0211
3778.00,0.0210
3777.00,0.0211
3776.00,0.0211
3775.00,0.0209
3774.00,0.0208
3773.00,0.0208
3772.00,0.0209
3771.00,0.0210
3770.00,0.0209
3769.00,0.0210
3768.00,0.0212
3767.00,0.0213
3766.00,0.0213
3765.00,0.0211
3764.00,0.0210
3763.00,0.0212
3762.00,0.0214
3761.00,0.0214
3760.00,0.0213
3759.00,0.0213
3758.00,0.0213
3757.00,0.0212
3756.00,0.0212
3755.00,0.0213
3754.00,0.0214
3753.00,0.0212
3752.00,0.0211
3751.00,0.0212
3750.00,0.0213
3749.00,0.0214
3748.00,0.0216
3747.00,0.0220
3746.00,0.0222
3745.00,0.0219
3744.00,0.0216
3743.00,0.0215
3742.00,0.0216
3741.00,0.0216
3740.00,0.0214
3739.00,0.0212
3738.00,0.0213
3737.00,0.0214
3736.00,0.0216
3735.00,0.0219
3734.00,0.0221
3733.00,0.0221
3732.00,0.0218
3731.00,0.0214
3730.00,0.0213
3729.00,0.0213
3728.00,0.0214
3727.00,0.0214
3726.00,0.0215
3725.00,0.0218
3724.00,0.0221
3723.00,0.0222
3722.00,0.0223
3721.00,0.0223
3720.00,0.0224
3719.00,0.0224
3718.00,0.0224
3717.00,0.0224
3716.00,0.0225
3715.00,0.0228
3714.00,0.0231
3713.00,0.0234
3712.00,0.0239
3711.00,0.0245
3710.00,0.0250
3709.00,0.0254
3708.00,0.0256
3707.00,0.0257
3706.00,0.0259
3705.00,0.0263
3704.00,0.0269
3703.00,0.0275
3702.00,0.0282
3701.00,0.0287
3700.00,0.0291
3699.00,0.0294
3698.00,0.0296
3697.00,0.0297
3696.00,0.0298
3695.00,0.0299
3694.00,0.0301
3693.00,0.0303
3692.00,0.0304
3691.00,0.0305
3690.00,0.0306
3689.00,0.0305
3688.00,0.0302
3687.00,0.0298
3686.00,0.0294
3685.00,0.0289
3684.00,0.0284
3683.00,0.0280
3682.00,0.0277
3681.00,0.0274
3680.00,0.0271
3679.00,0.0271
3678.00,0.0273
3677.00,0.0276
3676.00,0.0277
3675.00,0.0278
3674.00,0.0279
3673.00,0.0281
3672.00,0.0282
3671.00,0.0280
3670.00,0.0278
3669.00,0.0279
3668.00,0.0281
3667.00,0.0281
3666.00,0.0280
3665.00,0.0278
3664.00,0.0277
3663.00,0.0277
3662.00,0.0278
3661.00,0.0279
3660.00,0.0281
3659.00,0.0285
3658.00,0.0289
3657.00,0.0294
3656.00,0.0299
3655.00,0.0303
3654.00,0.0308
3653.00,0.0313
3652.00,0.0314
3651.00,0.0313
3650.00,0.0316
3649.00,0.0324
3648.00,0.0330
3647.00,0.0330
3646.00,0.0325
3645.00,0.0320
3644.00,0.0314
3643.00,0.0310
3642.00,0.0305
3641.00,0.0302
3640.00,0.0300
3639.00,0.0299
3638.00,0.0297
3637.00,0.0297
3636.00,0.0297
3635.00,0.0297
3634.00,0.0296
3633.00,0.0296
3632.00,0.0298
3631.00,0.0302
3630.00,0.0306
3629.00,0.0312
3628.00,0.0319
3627.00,0.0325
3626.00,0.0331
3625.00,0.0335
3624.00,0.0339
3623.00,0.0345
3622.00,0.0352
3621.00,0.0357
3620.00,0.0359
3619.00,0.0356
3618.00,0.0351
3617.00,0.0345
3616.00,0.0339
3615.00,0.0331
3614.00,0.0324
3613.00,0.0319
3612.00,0.0316
3611.00,0.0315
3610.00,0.0314
3609.00,0.0312
3608.00,0.0311
3607.00,0.0311
3606.00,0.0310
3605.00,0.0309
3604.00,0.0308
3603.00,0.0306
3602.00,0.0305
3601.00,0.0304
3600.00,0.0304
3599.00,0.0304
3598.00,0.0305
3597.00,0.0305
3596.00,0.0305
3595.00,0.0306
3594.00,0.0305
3593.00,0.0304
3592.00,0.0303
3591.00,0.0303
3590.00,0.0304
3589.00,0.0306
3588.00,0.0308
3587.00,0.0311
3586.00,0.0312
3585.00,0.0311
3584.00,0.0310
3583.00,0.0307
3582.00,0.0306
3581.00,0.0305
3580.00,0.0305
3579.00,0.0306
3578.00,0.0306
3577.00,0.0306
3576.00,0.0306
3575.00,0.0306
3574.00,0.0305
3573.00,0.0305
3572.00,0.0306
3571.00,0.0307
3570.00,0.0309
3569.00,0.0312
3568.00,0.0315
3567.00,0.0319
3566.00,0.0322
3565.00,0.0322
3564.00,0.0321
3563.00,0.0319
3562.00,0.0317
3561.00,0.0315
3560.00,0.0314
3559.00,0.0314
3558.00,0.0313
3557.00,0.0312
3556.00,0.0312
3555.00,0.0312
3554.00,0.0314
3553.00,0.0315
3552.00,0.0317
3551.00,0.0318
3550.00,0.0318
3549.00,0.0318
3548.00,0.0319
3547.00,0.0320
3546.00,0.0322
3545.00,0.0323
3544.00,0.0323
3543.00,0.0323
3542.00,0.0322
3541.00,0.0321
3540.00,0.0321
3539.00,0.0322
3538.00,0.0323
3537.00,0.0323
3536.00,0.0324
3535.00,0.0324
3534.00,0.0324
3533.00,0.0324
3532.00,0.0324
3531.00,0.0325
3530.00,0.0326
3529.00,0.0327
3528.00,0.0328
3527.00,0.0329
3526.00,0.0331
3525.00,0.0332
3524.00,0.0332
3523.00,0.0332
3522.00,0.0332
3521.00,0.0332
3520.00,0.0333
3519.00,0.0333
3518.00,0.0333
3517.00,0.0333
3516.00,0.0333
3515.00,0.0334
3514.00,0.0334
3513.00,0.0335
3512.00,0.0336
3511.00,0.0337
3510.00,0.0338
3509.00,0.0338
3508.00,0.0339
3507.00,0.0339
3506.00,0.0340
3505.00,0.0340
3504.00,0.0341
3503.00,0.0342
3502.00,0.0342
3501.00,0.0343
3500.00,0.0343
3499.00,0.0343
3498.00,0.0343
3497.00,0.0343
3496.00,0.0343
3495.00,0.0344
3494.00,0.0344
3493.00,0.0345
3492.00,0.0345
3491.00,0.0345
3490.00,0.0345
3489.00,0.0345
3488.00,0.0346
3487.00,0.0347
3486.00,0.0348
3485.00,0.0349
3484.00,0.0349
3483.00,0.0350
3482.00,0.0351
3481.00,0.0352
3480.00,0.0353
3479.00,0.0353
3478.00,0.0353
3477.00,0.0353
3476.00,0.0353
3475.00,0.0354
3474.00,0.0354
3473.00,0.0355
3472.00,0.0356
3471.00,0.0356
3470.00,0.0357
3469.00,0.0357
3468.00,0.0357
3467.00,0.0358
3466.00,0.0358
3465.00,0.0359
3464.00,0.0360
3463.00,0.0361
3462.00,0.0361
3461.00,0.0361
3460.00,0.0361
3459.00,0.0361
3458.00,0.0361
3457.00,0.0362
3456.00,0.0363
3455.00,0.0364
3454.00,0.0365
3453.00,0.0365
3452.00,0.0365
3451.00,0.0365
3450.00,0.0366
3449.00,0.0366
3448.00,0.0367
3447.00,0.0367
3446.00,0.0368
3445.00,0.0369
3444.00,0.0369
3443.00,0.0369
3442.00,0.0369
3441.00,0.0369
3440.00,0.0369
3439.00,0.0369
3438.00,0.0369
3437.00,0.0369
3436.00,0.0370
3435.00,0.0370
3434.00,0.0371
3433.00,0.0371
3432.00,0.0372
3431.00,0.0372
3430.00,0.0372
3429.00,0.0372
3428.00,0.0373
3427.00,0.0373
3426.00,0.0374
3425.00,0.0375
3424.00,0.0376
3423.00,0.0376
3422.00,0.0377
3421.00,0.0377
3420.00,0.0377
3419.00,0.0377
3418.00,0.0378
3417.00,0.0378
3416.00,0.0378
3415.00,0.0378
3414.00,0.0379
3413.00,0.0379
3412.00,0.0380
3411.00,0.0380
3410.00,0.0380
3409.00,0.0380
3408.00,0.0380
3407.00,0.0381
3406.00,0.0382
3405.00,0.0382
3404.00,0.0383
3403.00,0.0384
3402.00,0.0384
3401.00,0.0384
3400.00,0.0383
3399.00,0.0383
3398.00,0.0383
3397.00,0.0383
3396.00,0.0384
3395.00,0.0384
3394.00,0.0385
3393.00,0.0385
3392.00,0.0385
3391.00,0.0385
3390.00,0.0385
3389.00,0.0386
3388.00,0.0386
3387.00,0.0386
3386.00,0.0386
3385.00,0.0387
3384.00,0.0387
3383.00,0.0386
3382.00,0.0386
3381.00,0.0386
3380.00,0.0387
3379.00,0.0387
3378.00,0.0388
3377.00,0.0388
3376.00,0.0388
3375.00,0.0388
3374.00,0.0388
3373.00,0.0389
3372.00,0.0389
3371.00,0.0389
3370.00,0.0389
3369.00,0.0389
3368.00,0.0389
3367.00,0.0390
3366.00,0.0390
3365.00,0.0391
3364.00,0.0392
3363.00,0.0392
3362.00,0.0392
3361.00,0.0392
3360.00,0.0392
3359.00,0.0392
3358.00,0.0392
3357.00,0.0392
3356.00,0.0392
3355.00,0.0392
3354.00,0.0391
3353.00,0.0391
3352.00,0.0391
3351.00,0.0391
3350.00,0.0391
3349.00,0.0391
3348.00,0.0391
3347.00,0.0391
3346.00,0.0391
3345.00,0.0391
3344.00,0.0391
3343.00,0.0392
3342.00,0.0392
3341.00,0.0392
3340.00,0.0392
3339.00,0.0392
3338.00,0.0392
3337.00,0.0393
3336.00,0.0393
3335.00,0.0394
3334.00,0.0394
3333.00,0.0393
3332.00,0.0393
3331.00,0.0393
3330.00,0.0393
3329.00,0.0393
3328.00,0.0393
3327.00,0.0393
3326.00,0.0394
3325.00,0.0394
3324.00,0.0395
3323.00,0.0395
3322.00,0.0394
3321.00,0.0394
3320.00,0.0394
3319.00,0.0394
3318.00,0.0394
3317.00,0.0394
3316.00,0.0394
3315.00,0.0394
3314.00,0.0393
3313.00,0.0393
3312.00,0.0393
3311.00,0.0393
3310.00,0.0394
3309.00,0.0394
3308.00,0.0394
3307.00,0.0395
3306.00,0.0395
3305.00,0.0396
3304.00,0.0396
3303.00,0.0396
3302.00,0.0395
3301.00,0.0394
3300.00,0.0394
3299.00,0.0393
3298.00,0.0393
3297.00,0.0393
3296.00,0.0393
3295.00,0.0393
3294.00,0.0393
3293.00,0.0393
3292.00,0.0393
3291.00,0.0393
3290.00,0.0394
3289.00,0.0394
3288.00,0.0394
3287.00,0.0394
3286.00,0.0394
3285.00,0.0394
3284.00,0.0394
3283.00,0.0394
3282.00,0.0394
3281.00,0.0394
3280.00,0.0394
3279.00,0.0394
3278.00,0.0394
3277.00,0.0394
3276.00,0.0394
3275.00,0.0394
3274.00,0.0394
3273.00,0.0394
3272.00,0.0394
3271.00,0.0393
3270.00,0.0393
3269.00,0.0393
3268.00,0.0393
3267.00,0.0393
3266.00,0.0393
3265.00,0.0393
3264.00,0.0393
3263.00,0.0393
3262.00,0.0392
3261.00,0.0392
3260.00,0.0391
3259.00,0.0392
3258.00,0.0392
3257.00,0.0392
3256.00,0.0392
3255.00,0.0392
3254.00,0.0392
3253.00,0.0392
3252.00,0.0392
3251.00,0.0391
3250.00,0.0391
3249.00,0.0391
3248.00,0.0391
3247.00,0.0392
3246.00,0.0392
3245.00,0.0392
3244.00,0.0392
3243.00,0.0391
3242.00,0.0391
3241.00,0.0390
3240.00,0.0390
3239.00,0.0390
3238.00,0.0390
3237.00,0.0390
3236.00,0.0390
3235.00,0.0390
3234.00,0.0390
3233.00,0.0390
3232.00,0.0390
3231.00,0.0390
3230.00,0.0390
3229.00,0.0390
3228.00,0.0390
3227.00,0.0389
3226.00,0.0389
3225.00,0.0388
3224.00,0.0388
3223.00,0.0388
3222.00,0.0388
3221.00,0.0388
3220.00,0.0388
3219.00,0.0387
3218.00,0.0386
3217.00,0.0385
3216.00,0.0385
3215.00,0.0385
3214.00,0.0385
3213.00,0.0385
3212.00,0.0386
3211.00,0.0386
3210.00,0.0386
3209.00,0.0386
3208.00,0.0385
3207.00,0.0385
3206.00,0.0384
3205.00,0.0384
3204.00,0.0384
3203.00,0.0384
3202.00,0.0383
3201.00,0.0383
3200.00,0.0383
3199.00,0.0383
3198.00,0.0383
3197.00,0.0383
3196.00,0.0382
3195.00,0.0382
3194.00,0.0382
3193.00,0.0381
3192.00,0.0381
3191.00,0.0381
3190.00,0.0380
3189.00,0.0380
3188.00,0.0380
3187.00,0.0380
3186.00,0.0379
3185.00,0.0379
3184.00,0.0379
3183.00,0.0379
3182.00,0.0379
3181.00,0.0379
3180.00,0.0378
3179.00,0.0377
3178.00,0.0376
3177.00,0.0376
3176.00,0.0376
3175.00,0.0376
3174.00,0.0376
3173.00,0.0376
3172.00,0.0375
3171.00,0.0375
3170.00,0.0374
3169.00,0.0374
3168.00,0.0373
3167.00,0.0373
3166.00,0.0373
3165.00,0.0373
3164.00,0.0373
3163.00,0.0372
3162.00,0.0372
3161.00,0.0371
3160.00,0.0371
3159.00,0.0371
3158.00,0.0371
3157.00,0.0371
3156.00,0.0370
3155.00,0.0369
3154.00,0.0369
3153.00,0.0368
3152.00,0.0368
3151.00,0.0368
3150.00,0.0367
3149.00,0.0367
3148.00,0.0367
3147.00,0.0367
3146.00,0.0367
3145.00,0.0367
3144.00,0.0366
3143.00,0.0366
3142.00,0.0366
3141.00,0.0365
3140.00,0.0365
3139.00,0.0365
3138.00,0.0364
3137.00,0.0364
3136.00,0.0364
3135.00,0.0364
3134.00,0.0363
3133.00,0.0362
3132.00,0.0362
3131.00,0.0362
3130.00,0.0362
3129.00,0.0362
3128.00,0.0361
3127.00,0.0361
3126.00,0.0361
3125.00,0.0360
3124.00,0.0360
3123.00,0.0360
3122.00,0.0359
3121.00,0.0359
3120.00,0.0359
3119.00,0.0359
3118.00,0.0359
3117.00,0.0358
3116.00,0.0358
3115.00,0.0358
3114.00,0.0358
3113.00,0.0358
3112.00,0.0358
3111.00,0.0357
3110.00,0.0356
3109.00,0.0356
3108.00,0.0356
3107.00,0.0356
3106.00,0.0356
3105.00,0.0355
3104.00,0.0355
3103.00,0.0355
3102.00,0.0355
3101.00,0.0354
3100.00,0.0354
3099.00,0.0354
3098.00,0.0355
3097.00,0.0355
3096.00,0.0355
3095.00,0.0354
3094.00,0.0354
3093.00,0.0353
3092.00,0.0353
3091.00,0.0352
3090.00,0.0352
3089.00,0.0352
3088.00,0.0351
3087.00,0.0351
3086.00,0.0351
3085.00,0.0350
3084.00,0.0350
3083.00,0.0349
3082.00,0.0349
3081.00,0.0349
3080.00,0.0349
3079.00,0.0349
3078.00,0.0349
3077.00,0.0349
3076.00,0.0349
3075.00,0.0349
3074.00,0.0348
3073.00,0.0348
3072.00,0.0348
3071.00,0.0348
3070.00,0.0348
3069.00,0.0347
3068.00,0.0347
3067.00,0.0346
3066.00,0.0346
3065.00,0.0346
3064.00,0.0346
3063.00,0.0346
3062.00,0.0346
3061.00,0.0345
3060.00,0.0345
3059.00,0.0344
3058.00,0.0344
3057.00,0.0344
3056.00,0.0344
3055.00,0.0344
3054.00,0.0344
3053.00,0.0344
3052.00,0.0343
3051.00,0.0343
3050.00,0.0342
3049.00,0.0341
3048.00,0.0340
3047.00,0.0340
3046.00,0.0340
3045.00,0.0340
3044.00,0.0340
3043.00,0.0340
3042.00,0.0339
3041.00,0.0339
3040.00,0.0338
3039.00,0.0338
3038.00,0.0338
3037.00,0.0338
3036.00,0.0338
3035.00,0.0337
3034.00,0.0337
3033.00,0.0337
3032.00,0.0337
3031.00,0.0337
3030.00,0.0337
3029.00,0.0336
3028.00,0.0335
3027.00,0.0334
3026.00,0.0333
3025.00,0.0332
3024.00,0.0332
3023.00,0.0332
3022.00,0.0332
3021.00,0.0332
3020.00,0.0332
3019.00,0.0331
3018.00,0.0331
3017.00,0.0331
3016.00,0.0331
3015.00,0.0331
3014.00,0.0331
3013.00,0.0331
3012.00,0.0330
3011.00,0.0330
3010.00,0.0330
3009.00,0.0329
3008.00,0.0328
3007.00,0.0327
3006.00,0.0327
3005.00,0.0326
3004.00,0.0325
3003.00,0.0325
3002.00,0.0324
3001.00,0.0323
3000.00,0.0323
2999.00,0.0322
2998.00,0.0322
2997.00,0.0322
2996.00,0.0321
2995.00,0.0322
2994.00,0.0322
2993.00,0.0322
2992.00,0.0321
2991.00,0.0320
2990.00,0.0319
2989.00,0.0319
2988.00,0.0319
2987.00,0.0318
2986.00,0.0318
2985.00,0.0317
2984.00,0.0316
2983.00,0.0315
2982.00,0.0314
2981.00,0.0314
2980.00,0.0314
2979.00,0.0314
2978.00,0.0315
2977.00,0.0316
2976.00,0.0316
2975.00,0.0316
2974.00,0.0316
2973.00,0.0316
2972.00,0.0315
2971.00,0.0315
2970.00,0.0315
2969.00,0.0315
2968.00,0.0315
2967.00,0.0315
2966.00,0.0315
2965.00,0.0316
2964.00,0.0316
2963.00,0.0316
2962.00,0.0316
2961.00,0.0316
2960.00,0.0316
2959.00,0.0316
2958.00,0.0316
2957.00,0.0317
2956.00,0.0317
2955.00,0.0317
2954.00,0.0318
2953.00,0.0319
2952.00,0.0320
2951.00,0.0321
2950.00,0.0321
2949.00,0.0321
2948.00,0.0322
2947.00,0.0322
2946.00,0.0323
2945.00,0.0324
2944.00,0.0325
2943.00,0.0326
2942.00,0.0326
2941.00,0.0326
2940.00,0.0326
2939.00,0.0326
2938.00,0.0326
2937.00,0.0326
2936.00,0.0326
2935.00,0.0326
2934.00,0.0326
2933.00,0.0326
2932.00,0.0326
2931.00,0.0325
2930.00,0.0325
2929.00,0.0324
2928.00,0.0324
2927.00,0.0323
2926.00,0.0323
2925.00,0.0322
2924.00,0.0322
2923.00,0.0322
2922.00,0.0321
2921.00,0.0321
2920.00,0.0320
2919.00,0.0318
2918.00,0.0317
2917.00,0.0316
2916.00,0.0315
2915.00,0.0316
2914.00,0.0317
2913.00,0.0318
2912.00,0.0318
2911.00,0.0318
2910.00,0.0319
2909.00,0.0319
2908.00,0.0319
2907.00,0.0319
2906.00,0.0318
2905.00,0.0318
2904.00,0.0318
2903.00,0.0317
2902.00,0.0317
2901.00,0.0317
2900.00,0.0317
2899.00,0.0317
2898.00,0.0316
2897.00,0.0315
2896.00,0.0315
2895.00,0.0314
2894.00,0.0314
2893.00,0.0314
2892.00,0.0315
2891.00,0.0314
2890.00,0.0314
2889.00,0.0314
2888.00,0.0313
2887.00,0.0313
2886.00,0.0313
2885.00,0.0313
2884.00,0.0313
2883.00,0.0314
2882.00,0.0314
2881.00,0.0314
2880.00,0.0313
2879.00,0.0313
2878.00,0.0312
2877.00,0.0312
2876.00,0.0311
2875.00,0.0311
2874.00,0.0310
2873.00,0.0309
2872.00,0.0309
2871.00,0.0309
2870.00,0.0308
2869.00,0.0308
2868.00,0.0308
2867.00,0.0308
2866.00,0.0309
2865.00,0.0309
2864.00,0.0309
2863.00,0.0309
2862.00,0.0310
2861.00,0.0310
2860.00,0.0310
2859.00,0.0310
2858.00,0.0310
2857.00,0.0310
2856.00,0.0310
2855.00,0.0309
2854.00,0.0309
2853.00,0.0309
2852.00,0.0308
2851.00,0.0307
2850.00,0.0306
2849.00,0.0305
2848.00,0.0305
2847.00,0.0304
2846.00,0.0304
2845.00,0.0304
2844.00,0.0304
2843.00,0.0303
2842.00,0.0303
2841.00,0.0303
2840.00,0.0303
2839.00,0.0303
2838.00,0.0303
2837.00,0.0302
2836.00,0.0302
2835.00,0.0301
2834.00,0.0301
2833.00,0.0301
2832.00,0.0300
2831.00,0.0300
2830.00,0.0300
2829.00,0.0300
2828.00,0.0300
2827.00,0.0300
2826.00,0.0300
2825.00,0.0299
2824.00,0.0299
2823.00,0.0298
2822.00,0.0298
2821.00,0.0298
2820.00,0.0298
2819.00,0.0298
2818.00,0.0298
2817.00,0.0297
2816.00,0.0297
2815.00,0.0297
2814.00,0.0296
2813.00,0.0296
2812.00,0.0295
2811.00,0.0295
2810.00,0.0295
2809.00,0.0295
2808.00,0.0294
2807.00,0.0294
2806.00,0.0294
2805.00,0.0294
2804.00,0.0294
2803.00,0.0294
2802.00,0.0294
2801.00,0.0294
2800.00,0.0293
2799.00,0.0293
2798.00,0.0293
2797.00,0.0293
2796.00,0.0292
2795.00,0.0292
2794.00,0.0291
2793.00,0.0291
2792.00,0.0291
2791.00,0.0291
2790.00,0.0291
2789.00,0.0291
2788.00,0.0291
2787.00,0.0291
2786.00,0.0291
2785.00,0.0291
2784.00,0.0290
2783.00,0.0290
2782.00,0.0290
2781.00,0.0290
2780.00,0.0290
2779.00,0.0289
2778.00,0.0289
2777.00,0.0289
2776.00,0.0290
2775.00,0.0290
2774.00,0.0289
2773.00,0.0289
2772.00,0.0288
2771.00,0.0288
2770.00,0.0288
2769.00,0.0288
2768.00,0.0287
2767.00,0.0287
2766.00,0.0287
2765.00,0.0287
2764.00,0.0288
2763.00,0.0288
2762.00,0.0288
2761.00,0.0287
2760.00,0.0287
2759.00,0.0287
2758.00,0.0287
2757.00,0.0287
2756.00,0.0287
2755.00,0.0287
2754.00,0.0287
2753.00,0.0287
2752.00,0.0287
2751.00,0.0287
2750.00,0.0286
2749.00,0.0287
2748.00,0.0287
2747.00,0.0287
2746.00,0.0286
2745.00,0.0285
2744.00,0.0285
2743.00,0.0284
2742.00,0.0284
2741.00,0.0285
2740.00,0.0285
2739.00,0.0285
2738.00,0.0284
2737.00,0.0284
2736.00,0.0284
2735.00,0.0283
2734.00,0.0283
2733.00,0.0283
2732.00,0.0283
2731.00,0.0283
2730.00,0.0283
2729.00,0.0284
2728.00,0.0284
2727.00,0.0284
2726.00,0.0284
2725.00,0.0283
2724.00,0.0283
2723.00,0.0283
2722.00,0.0283
2721.00,0.0283
2720.00,0.0283
2719.00,0.0282
2718.00,0.0282
2717.00,0.0282
2716.00,0.0282
2715.00,0.0282
2714.00,0.0282
2713.00,0.0282
2712.00,0.0282
2711.00,0.0282
2710.00,0.0282
2709.00,0.0282
2708.00,0.0282
2707.00,0.0282
2706.00,0.0281
2705.00,0.0281
2704.00,0.0281
2703.00,0.0281
2702.00,0.0281
2701.00,0.0280
2700.00,0.0280
2699.00,0.0280
2698.00,0.0280
2697.00,0.0280
2696.00,0.0280
2695.00,0.0280
2694.00,0.0280
2693.00,0.0280
2692.00,0.0280
2691.00,0.0279
2690.00,0.0279
2689.00,0.0279
2688.00,0.0280
2687.00,0.0280
2686.00,0.0280
2685.00,0.0279
2684.00,0.0279
2683.00,0.0279
2682.00,0.0279
2681.00,0.0279
2680.00,0.0279
2679.00,0.0279
2678.00,0.0280
2677.00,0.0279
2676.00,0.0279
2675.00,0.0279
2674.00,0.0279
2673.00,0.0278
2672.00,0.0278
2671.00,0.0278
2670.00,0.0278
2669.00,0.0278
2668.00,0.0278
2667.00,0.0278
2666.00,0.0278
2665.00,0.0278
2664.00,0.0278
2663.00,0.0278
2662.00,0.0278
2661.00,0.0278
2660.00,0.0278
2659.00,0.0278
2658.00,0.0279
2657.00,0.0279
2656.00,0.0279
2655.00,0.0279
2654.00,0.0279
2653.00,0.0279
2652.00,0.0279
2651.00,0.0279
2650.00,0.0279
2649.00,0.0280
2648.00,0.0280
2647.00,0.0280
2646.00,0.0280
2645.00,0.0280
2644.00,0.0280
2643.00,0.0281
2642.00,0.0281
2641.00,0.0281
2640.00,0.0281
2639.00,0.0281
2638.00,0.0280
2637.00,0.0280
2636.00,0.0280
2635.00,0.0280
2634.00,0.0280
2633.00,0.0280
2632.00,0.0279
2631.00,0.0279
2630.00,0.0280
2629.00,0.0280
2628.00,0.0280
2627.00,0.0280
2626.00,0.0280
2625.00,0.0280
2624.00,0.0280
2623.00,0.0280
2622.00,0.0280
2621.00,0.0280
2620.00,0.0280
2619.00,0.0280
2618.00,0.0280
2617.00,0.0280
2616.00,0.0281
2615.00,0.0281
2614.00,0.0281
2613.00,0.0280
2612.00,0.0280
2611.00,0.0279
2610.00,0.0279
2609.00,0.0279
2608.00,0.0279
2607.00,0.0279
2606.00,0.0279
2605.00,0.0280
2604.00,0.0280
2603.00,0.0280
2602.00,0.0281
2601.00,0.0281
2600.00,0.0281
2599.00,0.0280
2598.00,0.0280
2597.00,0.0280
2596.00,0.0280
2595.00,0.0280
2594.00,0.0280
2593.00,0.0280
2592.00,0.0281
2591.00,0.0281
2590.00,0.0281
2589.00,0.0280
2588.00,0.0280
2587.00,0.0279
2586.00,0.0278
2585.00,0.0278
2584.00,0.0279
2583.00,0.0279
2582.00,0.0280
2581.00,0.0280
2580.00,0.0280
2579.00,0.0280
2578.00,0.0280
2577.00,0.0280
2576.00,0.0280
2575.00,0.0280
2574.00,0.0279
2573.00,0.0279
2572.00,0.0279
2571.00,0.0279
2570.00,0.0279
2569.00,0.0279
2568.00,0.0279
2567.00,0.0280
2566.00,0.0280
2565.00,0.0281
2564.00,0.0280
2563.00,0.0280
2562.00,0.0280
2561.00,0.0280
2560.00,0.0280
2559.00,0.0280
2558.00,0.0280
2557.00,0.0280
2556.00,0.0280
2555.00,0.0280
2554.00,0.0280
2553.00,0.0281
2552.00,0.0281
2551.00,0.0281
2550.00,0.0281
2549.00,0.0280
2548.00,0.0279
2547.00,0.0278
2546.00,0.0278
2545.00,0.0278
2544.00,0.0278
2543.00,0.0278
2542.00,0.0279
2541.00,0.0280
2540.00,0.0280
2539.00,0.0280
2538.00,0.0280
2537.00,0.0280
2536.00,0.0280
2535.00,0.0279
2534.00,0.0279
2533.00,0.0279
2532.00,0.0279
2531.00,0.0279
2530.00,0.0279
2529.00,0.0279
2528.00,0.0279
2527.00,0.0279
2526.00,0.0279
2525.00,0.0279
2524.00,0.0279
2523.00,0.0280
2522.00,0.0280
2521.00,0.0280
2520.00,0.0279
2519.00,0.0279
2518.00,0.0278
2517.00,0.0277
2516.00,0.0277
2515.00,0.0277
2514.00,0.0277
2513.00,0.0278
2512.00,0.0279
2511.00,0.0279
2510.00,0.0278
2509.00,0.0277
2508.00,0.0277
2507.00,0.0277
2506.00,0.0277
2505.00,0.0277
2504.00,0.0277
2503.00,0.0277
2502.00,0.0278
2501.00,0.0278
2500.00,0.0278
2499.00,0.0278
2498.00,0.0277
2497.00,0.0276
2496.00,0.0276
2495.00,0.0275
2494.00,0.0275
2493.00,0.0275
2492.00,0.0275
2491.00,0.0275
2490.00,0.0275
2489.00,0.0276
2488.00,0.0276
2487.00,0.0276
2486.00,0.0276
2485.00,0.0276
2484.00,0.0276
2483.00,0.0276
2482.00,0.0276
2481.00,0.0276
2480.00,0.0276
2479.00,0.0276
2478.00,0.0276
2477.00,0.0276
2476.00,0.0276
2475.00,0.0276
2474.00,0.0276
2473.00,0.0276
2472.00,0.0276
2471.00,0.0276
2470.00,0.0275
2469.00,0.0275
2468.00,0.0274
2467.00,0.0274
2466.00,0.0274
2465.00,0.0274
2464.00,0.0274
2463.00,0.0274
2462.00,0.0274
2461.00,0.0274
2460.00,0.0274
2459.00,0.0274
2458.00,0.0275
2457.00,0.0275
2456.00,0.0274
2455.00,0.0274
2454.00,0.0273
2453.00,0.0273
2452.00,0.0274
2451.00,0.0274
2450.00,0.0274
2449.00,0.0274
2448.00,0.0273
2447.00,0.0273
2446.00,0.0273
2445.00,0.0273
2444.00,0.0272
2443.00,0.0272
2442.00,0.0272
2441.00,0.0272
2440.00,0.0272
2439.00,0.0271
2438.00,0.0271
2437.00,0.0271
2436.00,0.0271
2435.00,0.0271
2434.00,0.0271
2433.00,0.0272
2432.00,0.0272
2431.00,0.0272
2430.00,0.0272
2429.00,0.0272
2428.00,0.0272
2427.00,0.0272
2426.00,0.0272
2425.00,0.0272
2424.00,0.0272
2423.00,0.0271
2422.00,0.0270
2421.00,0.0269
2420.00,0.0269
2419.00,0.0269
2418.00,0.0269
2417.00,0.0270
2416.00,0.0270
2415.00,0.0270
2414.00,0.0270
2413.00,0.0270
2412.00,0.0270
2411.00,0.0270
2410.00,0.0270
2409.00,0.0269
2408.00,0.0269
2407.00,0.0268
2406.00,0.0268
2405.00,0.0268
2404.00,0.0268
2403.00,0.0268
2402.00,0.0267
2401.00,0.0266
2400.00,0.0266
2399.00,0.0266
2398.00,0.0266
2397.00,0.0267
2396.00,0.0267
2395.00,0.0267
2394.00,0.0266
2393.00,0.0266
2392.00,0.0266
2391.00,0.0265
2390.00,0.0265
2389.00,0.0264
2388.00,0.0263
2387.00,0.0261
2386.00,0.0259
2385.00,0.0257
2384.00,0.0255
2383.00,0.0253
2382.00,0.0252
2381.00,0.0252
2380.00,0.0252
2379.00,0.0252
2378.00,0.0253
2377.00,0.0255
2376.00,0.0256
2375.00,0.0258
2374.00,0.0258
2373.00,0.0259
2372.00,0.0258
2371.00,0.0258
2370.00,0.0258
2369.00,0.0258
2368.00,0.0258
2367.00,0.0258
2366.00,0.0258
2365.00,0.0258
2364.00,0.0259
2363.00,0.0260
2362.00,0.0262
2361.00,0.0265
2360.00,0.0267
2359.00,0.0268
2358.00,0.0269
2357.00,0.0269
2356.00,0.0267
2355.00,0.0262
2354.00,0.0257
2353.00,0.0253
2352.00,0.0254
2351.00,0.0258
2350.00,0.0261
2349.00,0.0260
2348.00,0.0256
2347.00,0.0252
2346.00,0.0253
2345.00,0.0257
2344.00,0.0260
2343.00,0.0262
2342.00,0.0262
2341.00,0.0262
2340.00,0.0262
2339.00,0.0262
2338.00,0.0263
2337.00,0.0263
2336.00,0.0263
2335.00,0.0263
2334.00,0.0262
2333.00,0.0263
2332.00,0.0264
2331.00,0.0266
2330.00,0.0267
2329.00,0.0268
2328.00,0.0270
2327.00,0.0271
2326.00,0.0271
2325.00,0.0270
2324.00,0.0270
2323.00,0.0270
2322.00,0.0271
2321.00,0.0270
2320.00,0.0269
2319.00,0.0268
2318.00,0.0267
2317.00,0.0266
2316.00,0.0265
2315.00,0.0264
2314.00,0.0264
2313.00,0.0265
2312.00,0.0265
2311.00,0.0265
2310.00,0.0264
2309.00,0.0264
2308.00,0.0264
2307.00,0.0265
2306.00,0.0265
2305.00,0.0266
2304.00,0.0266
2303.00,0.0265
2302.00,0.0264
2301.00,0.0264
2300.00,0.0263
2299.00,0.0263
2298.00,0.0263
2297.00,0.0263
2296.00,0.0263
2295.00,0.0263
2294.00,0.0263
2293.00,0.0263
2292.00,0.0263
2291.00,0.0264
2290.00,0.0264
2289.00,0.0265
2288.00,0.0265
2287.00,0.0264
2286.00,0.0264
2285.00,0.0264
2284.00,0.0263
2283.00,0.0263
2282.00,0.0263
2281.00,0.0263
2280.00,0.0264
2279.00,0.0264
2278.00,0.0264
2277.00,0.0264
2276.00,0.0264
2275.00,0.0264
2274.00,0.0265
2273.00,0.0265
2272.00,0.0265
2271.00,0.0264
2270.00,0.0263
2269.00,0.0262
2268.00,0.0261
2267.00,0.0261
2266.00,0.0261
2265.00,0.0262
2264.00,0.0262
2263.00,0.0263
2262.00,0.0263
2261.00,0.0263
2260.00,0.0263
2259.00,0.0264
2258.00,0.0265
2257.00,0.0265
2256.00,0.0265
2255.00,0.0264
2254.00,0.0263
2253.00,0.0262
2252.00,0.0261
2251.00,0.0261
2250.00,0.0262
2249.00,0.0263
2248.00,0.0264
2247.00,0.0263
2246.00,0.0263
2245.00,0.0262
2244.00,0.0261
2243.00,0.0261
2242.00,0.0261
2241.00,0.0262
2240.00,0.0263
2239.00,0.0263
2238.00,0.0263
2237.00,0.0264
2236.00,0.0264
2235.00,0.0263
2234.00,0.0263
2233.00,0.0263
2232.00,0.0263
2231.00,0.0263
2230.00,0.0263
2229.00,0.0263
2228.00,0.0263
2227.00,0.0264
2226.00,0.0264
2225.00,0.0265
2224.00,0.0265
2223.00,0.0264
2222.00,0.0265
2221.00,0.0266
2220.00,0.0266
2219.00,0.0266
2218.00,0.0266
2217.00,0.0266
2216.00,0.0267
2215.00,0.0267
2214.00,0.0266
2213.00,0.0265
2212.00,0.0263
2211.00,0.0262
2210.00,0.0262
2209.00,0.0262
2208.00,0.0262
2207.00,0.0262
2206.00,0.0263
2205.00,0.0263
2204.00,0.0264
2203.00,0.0264
2202.00,0.0264
2201.00,0.0264
2200.00,0.0264
2199.00,0.0264
2198.00,0.0265
2197.00,0.0266
2196.00,0.0266
2195.00,0.0266
2194.00,0.0266
2193.00,0.0265
2192.00,0.0265
2191.00,0.0265
2190.00,0.0266
2189.00,0.0266
2188.00,0.0266
2187.00,0.0265
2186.00,0.0264
2185.00,0.0264
2184.00,0.0265
2183.00,0.0265
2182.00,0.0265
2181.00,0.0265
2180.00,0.0265
2179.00,0.0265
2178.00,0.0264
2177.00,0.0263
2176.00,0.0262
2175.00,0.0262
2174.00,0.0264
2173.00,0.0266
2172.00,0.0266
2171.00,0.0266
2170.00,0.0265
2169.00,0.0264
2168.00,0.0263
2167.00,0.0264
2166.00,0.0266
2165.00,0.0267
2164.00,0.0268
2163.00,0.0267
2162.00,0.0267
2161.00,0.0265
2160.00,0.0262
2159.00,0.0259
2158.00,0.0256
2157.00,0.0255
2156.00,0.0255
2155.00,0.0256
2154.00,0.0257
2153.00,0.0258
2152.00,0.0258
2151.00,0.0257
2150.00,0.0256
2149.00,0.0254
2148.00,0.0253
2147.00,0.0251
2146.00,0.0250
2145.00,0.0250
2144.00,0.0252
2143.00,0.0253
2142.00,0.0254
2141.00,0.0254
2140.00,0.0254
2139.00,0.0253
2138.00,0.0253
2137.00,0.0252
2136.00,0.0251
2135.00,0.0250
2134.00,0.0250
2133.00,0.0249
2132.00,0.0249
2131.00,0.0248
2130.00,0.0248
2129.00,0.0249
2128.00,0.0249
2127.00,0.0249
2126.00,0.0249
2125.00,0.0250
2124.00,0.0250
2123.00,0.0251
2122.00,0.0252
2121.00,0.0253
2120.00,0.0254
2119.00,0.0255
2118.00,0.0256
2117.00,0.0256
2116.00,0.0255
2115.00,0.0255
2114.00,0.0254
2113.00,0.0253
2112.00,0.0252
2111.00,0.0252
2110.00,0.0251
2109.00,0.0252
2108.00,0.0252
2107.00,0.0251
2106.00,0.0251
2105.00,0.0250
2104.00,0.0250
2103.00,0.0250
2102.00,0.0250
2101.00,0.0251
2100.00,0.0251
2099.00,0.0251
2098.00,0.0252
2097.00,0.0252
2096.00,0.0252
2095.00,0.0251
2094.00,0.0250
2093.00,0.0251
2092.00,0.0252
2091.00,0.0253
2090.00,0.0253
2089.00,0.0253
2088.00,0.0253
2087.00,0.0252
2086.00,0.0251
2085.00,0.0251
2084.00,0.0251
2083.00,0.0251
2082.00,0.0251
2081.00,0.0251
2080.00,0.0250
2079.00,0.0249
2078.00,0.0250
2077.00,0.0250
2076.00,0.0251
2075.00,0.0252
2074.00,0.0251
2073.00,0.0251
2072.00,0.0250
2071.00,0.0251
2070.00,0.0251
2069.00,0.0251
2068.00,0.0251
2067.00,0.0250
2066.00,0.0251
2065.00,0.0251
2064.00,0.0252
2063.00,0.0252
2062.00,0.0252
2061.00,0.0252
2060.00,0.0252
2059.00,0.0252
2058.00,0.0252
2057.00,0.0252
2056.00,0.0252
2055.00,0.0252
2054.00,0.0253
2053.00,0.0254
2052.00,0.0256
2051.00,0.0256
2050.00,0.0255
2049.00,0.0255
2048.00,0.0254
2047.00,0.0255
2046.00,0.0255
2045.00,0.0254
2044.00,0.0252
2043.00,0.0251
2042.00,0.0250
2041.00,0.0251
2040.00,0.0252
2039.00,0.0253
2038.00,0.0254
2037.00,0.0255
2036.00,0.0254
2035.00,0.0253
2034.00,0.0252
2033.00,0.0251
2032.00,0.0251
2031.00,0.0251
2030.00,0.0251
2029.00,0.0251
2028.00,0.0251
2027.00,0.0249
2026.00,0.0247
2025.00,0.0246
2024.00,0.0245
2023.00,0.0245
2022.00,0.0245
2021.00,0.0247
2020.00,0.0248
2019.00,0.0249
2018.00,0.0248
2017.00,0.0247
2016.00,0.0246
2015.00,0.0246
2014.00,0.0247
2013.00,0.0248
2012.00,0.0249
2011.00,0.0248
2010.00,0.0247
2009.00,0.0245
2008.00,0.0244
2007.00,0.0244
2006.00,0.0244
2005.00,0.0245
2004.00,0.0247
2003.00,0.0248
2002.00,0.0248
2001.00,0.0249
2000.00,0.0249
1999.00,0.0249
1998.00,0.0249
1997.00,0.0250
1996.00,0.0249
1995.00,0.0249
1994.00,0.0250
1993.00,0.0250
1992.00,0.0250
1991.00,0.0249
1990.00,0.0248
1989.00,0.0247
1988.00,0.0245
1987.00,0.0243
1986.00,0.0243
1985.00,0.0244
1984.00,0.0247
1983.00,0.0249
1982.00,0.0251
1981.00,0.0253
1980.00,0.0252
1979.00,0.0250
1978.00,0.0248
1977.00,0.0248
1976.00,0.0248
1975.00,0.0247
1974.00,0.0246
1973.00,0.0245
1972.00,0.0245
1971.00,0.0246
1970.00,0.0247
1969.00,0.0249
1968.00,0.0249
1967.00,0.0248
1966.00,0.0244
1965.00,0.0241
1964.00,0.0240
1963.00,0.0241
1962.00,0.0243
1961.00,0.0243
1960.00,0.0242
1959.00,0.0241
1958.00,0.0239
1957.00,0.0238
1956.00,0.0237
1955.00,0.0236
1954.00,0.0236
1953.00,0.0237
1952.00,0.0238
1951.00,0.0238
1950.00,0.0237
1949.00,0.0235
1948.00,0.0235
1947.00,0.0236
1946.00,0.0237
1945.00,0.0239
1944.00,0.0239
1943.00,0.0238
1942.00,0.0237
1941.00,0.0236
1940.00,0.0235
1939.00,0.0235
1938.00,0.0235
1937.00,0.0235
1936.00,0.0235
1935.00,0.0234
1934.00,0.0234
1933.00,0.0234
1932.00,0.0233
1931.00,0.0233
1930.00,0.0233
1929.00,0.0233
1928.00,0.0233
1927.00,0.0232
1926.00,0.0233
1925.00,0.0234
1924.00,0.0234
1923.00,0.0233
1922.00,0.0232
1921.00,0.0231
1920.00,0.0231
1919.00,0.0230
1918.00,0.0230
1917.00,0.0229
1916.00,0.0228
1915.00,0.0227
1914.00,0.0227
1913.00,0.0227
1912.00,0.0227
1911.00,0.0228
1910.00,0.0228
1909.00,0.0227
1908.00,0.0227
1907.00,0.0226
1906.00,0.0225
1905.00,0.0225
1904.00,0.0224
1903.00,0.0223
1902.00,0.0223
1901.00,0.0222
1900.00,0.0222
1899.00,0.0222
1898.00,0.0222
1897.00,0.0222
1896.00,0.0222
1895.00,0.0222
1894.00,0.0222
1893.00,0.0222
1892.00,0.0222
1891.00,0.0221
1890.00,0.0220
1889.00,0.0219
1888.00,0.0219
1887.00,0.0219
1886.00,0.0219
1885.00,0.0220
1884.00,0.0219
1883.00,0.0218
1882.00,0.0217
1881.00,0.0217
1880.00,0.0216
1879.00,0.0216
1878.00,0.0215
1877.00,0.0214
1876.00,0.0214
1875.00,0.0213
1874.00,0.0213
1873.00,0.0214
1872.00,0.0215
1871.00,0.0215
1870.00,0.0213
1869.00,0.0211
1868.00,0.0210
1867.00,0.0210
1866.00,0.0210
1865.00,0.0211
1864.00,0.0211
1863.00,0.0210
1862.00,0.0209
1861.00,0.0209
1860.00,0.0209
1859.00,0.0209
1858.00,0.0208
1857.00,0.0208
1856.00,0.0208
1855.00,0.0207
1854.00,0.0206
1853.00,0.0205
1852.00,0.0204
1851.00,0.0204
1850.00,0.0204
1849.00,0.0203
1848.00,0.0203
1847.00,0.0203
1846.00,0.0202
1845.00,0.0201
1844.00,0.0200
1843.00,0.0199
1842.00,0.0199
1841.00,0.0200
1840.00,0.0200
1839.00,0.0200
1838.00,0.0198
1837.00,0.0198
1836.00,0.0197
1835.00,0.0197
1834.00,0.0197
1833.00,0.0198
1832.00,0.0199
1831.00,0.0198
1830.00,0.0196
1829.00,0.0195
1828.00,0.0195
1827.00,0.0196
1826.00,0.0195
1825.00,0.0194
1824.00,0.0193
1823.00,0.0192
1822.00,0.0192
1821.00,0.0192
1820.00,0.0191
1819.00,0.0190
1818.00,0.0189
1817.00,0.0188
1816.00,0.0188
1815.00,0.0188
1814.00,0.0188
1813.00,0.0188
1812.00,0.0188
1811.00,0.0187
1810.00,0.0185
1809.00,0.0184
1808.00,0.0184
1807.00,0.0184
1806.00,0.0184
1805.00,0.0185
1804.00,0.0186
1803.00,0.0187
1802.00,0.0186
1801.00,0.0186
1800.00,0.0185
1799.00,0.0184
1798.00,0.0183
1797.00,0.0184
1796.00,0.0184
1795.00,0.0185
1794.00,0.0184
1793.00,0.0183
1792.00,0.0183
1791.00,0.0183
1790.00,0.0183
1789.00,0.0184
1788.00,0.0185
1787.00,0.0185
1786.00,0.0185
1785.00,0.0186
1784.00,0.0187
1783.00,0.0188
1782.00,0.0190
1781.00,0.0190
1780.00,0.0191
1779.00,0.0191
1778.00,0.0192
1777.00,0.0193
1776.00,0.0194
1775.00,0.0196
1774.00,0.0197
1773.00,0.0196
1772.00,0.0196
1771.00,0.0196
1770.00,0.0197
1769.00,0.0199
1768.00,0.0200
1767.00,0.0200
1766.00,0.0202
1765.00,0.0204
1764.00,0.0206
1763.00,0.0207
1762.00,0.0207
1761.00,0.0207
1760.00,0.0208
1759.00,0.0210
1758.00,0.0212
1757.00,0.0212
1756.00,0.0212
1755.00,0.0213
1754.00,0.0215
1753.00,0.0217
1752.00,0.0218
1751.00,0.0220
1750.00,0.0223
1749.00,0.0226
1748.00,0.0229
1747.00,0.0232
1746.00,0.0235
1745.00,0.0238
1744.00,0.0241
1743.00,0.0244
1742.00,0.0246
1741.00,0.0247
1740.00,0.0248
1739.00,0.0249
1738.00,0.0251
1737.00,0.0254
1736.00,0.0256
1735.00,0.0256
1734.00,0.0257
1733.00,0.0261
1732.00,0.0266
1731.00,0.0271
1730.00,0.0275
1729.00,0.0277
1728.00,0.0278
1727.00,0.0280
1726.00,0.0282
1725.00,0.0284
1724.00,0.0286
1723.00,0.0287
1722.00,0.0289
1721.00,0.0291
1720.00,0.0293
1719.00,0.0293
1718.00,0.0291
1717.00,0.0292
1716.00,0.0294
1715.00,0.0296
1714.00,0.0299
1713.00,0.0300
1712.00,0.0302
1711.00,0.0302
1710.00,0.0303
1709.00,0.0304
1708.00,0.0306
1707.00,0.0308
1706.00,0.0309
1705.00,0.0310
1704.00,0.0310
1703.00,0.0311
1702.00,0.0312
1701.00,0.0311
1700.00,0.0309
1699.00,0.0307
1698.00,0.0309
1697.00,0.0313
1696.00,0.0316
1695.00,0.0315
1694.00,0.0313
1693.00,0.0314
1692.00,0.0316
1691.00,0.0317
1690.00,0.0317
1689.00,0.0318
1688.00,0.0319
1687.00,0.0322
1686.00,0.0323
1685.00,0.0323
1684.00,0.0325
1683.00,0.0326
1682.00,0.0327
1681.00,0.0329
1680.00,0.0329
1679.00,0.0329
1678.00,0.0330
1677.00,0.0330
1676.00,0.0331
1675.00,0.0333
1674.00,0.0335
1673.00,0.0337
1672.00,0.0340
1671.00,0.0342
1670.00,0.0345
1669.00,0.0349
1668.00,0.0351
1667.00,0.0352
1666.00,0.0352
1665.00,0.0353
1664.00,0.0354
1663.00,0.0355
1662.00,0.0358
1661.00,0.0360
1660.00,0.0361
1659.00,0.0362
1658.00,0.0363
1657.00,0.0364
1656.00,0.0367
1655.00,0.0370
1654.00,0.0373
1653.00,0.0379
1652.00,0.0379
1651.00,0.0377
1650.00,0.0378
1649.00,0.0379
1648.00,0.0380
1647.00,0.0382
1646.00,0.0385
1645.00,0.0387
1644.00,0.0388
1643.00,0.0389
1642.00,0.0391
1641.00,0.0391
1640.00,0.0392
1639.00,0.0393
1638.00,0.0394
1637.00,0.0396
1636.00,0.0400
1635.00,0.0405
1634.00,0.0406
1633.00,0.0406
1632.00,0.0407
1631.00,0.0408
1630.00,0.0410
1629.00,0.0412
1628.00,0.0414
1627.00,0.0416
1626.00,0.0417
1625.00,0.0417
1624.00,0.0418
1623.00,0.0419
1622.00,0.0421
1621.00,0.0422
1620.00,0.0422
1619.00,0.0423
1618.00,0.0423
1617.00,0.0425
1616.00,0.0427
1615.00,0.0428
1614.00,0.0430
1613.00,0.0431
1612.00,0.0431
1611.00,0.0432
1610.00,0.0433
1609.00,0.0435
1608.00,0.0436
1607.00,0.0438
1606.00,0.0439
1605.00,0.0440
1604.00,0.0440
1603.00,0.0442
1602.00,0.0444
1601.00,0.0445
1600.00,0.0446
1599.00,0.0446
1598.00,0.0447
1597.00,0.0448
1596.00,0.0448
1595.00,0.0449
1594.00,0.0450
1593.00,0.0450
1592.00,0.0450
1591.00,0.0451
1590.00,0.0452
1589.00,0.0453
1588.00,0.0453
1587.00,0.0453
1586.00,0.0454
1585.00,0.0454
1584.00,0.0453
1583.00,0.0453
1582.00,0.0454
1581.00,0.0454
1580.00,0.0454
1579.00,0.0454
1578.00,0.0455
1577.00,0.0455
1576.00,0.0456
1575.00,0.0456
1574.00,0.0455
1573.00,0.0454
1572.00,0.0453
1571.00,0.0452
1570.00,0.0452
1569.00,0.0453
1568.00,0.0452
1567.00,0.0451
1566.00,0.0451
1565.00,0.0450
1564.00,0.0449
1563.00,0.0447
1562.00,0.0447
1561.00,0.0446
1560.00,0.0444
1559.00,0.0447
1558.00,0.0449
1557.00,0.0445
1556.00,0.0441
1555.00,0.0439
1554.00,0.0438
1553.00,0.0437
1552.00,0.0436
1551.00,0.0436
1550.00,0.0435
1549.00,0.0433
1548.00,0.0430
1547.00,0.0428
1546.00,0.0425
1545.00,0.0422
1544.00,0.0420
1543.00,0.0417
1542.00,0.0412
1541.00,0.0410
1540.00,0.0413
1539.00,0.0416
1538.00,0.0414
1537.00,0.0412
1536.00,0.0410
1535.00,0.0409
1534.00,0.0409
1533.00,0.0409
1532.00,0.0409
1531.00,0.0407
1530.00,0.0405
1529.00,0.0403
1528.00,0.0401
1527.00,0.0399
1526.00,0.0397
1525.00,0.0394
1524.00,0.0392
1523.00,0.0390
1522.00,0.0388
1521.00,0.0389
1520.00,0.0391
1519.00,0.0392
1518.00,0.0392
1517.00,0.0391
1516.00,0.0390
1515.00,0.0387
1514.00,0.0384
1513.00,0.0381
1512.00,0.0381
1511.00,0.0381
1510.00,0.0381
1509.00,0.0382
1508.00,0.0382
1507.00,0.0382
1506.00,0.0381
1505.00,0.0375
1504.00,0.0371
1503.00,0.0370
1502.00,0.0368
1501.00,0.0366
1500.00,0.0363
1499.00,0.0361
1498.00,0.0358
1497.00,0.0358
1496.00,0.0360
1495.00,0.0361
1494.00,0.0362
1493.00,0.0362
1492.00,0.0362
1491.00,0.0363
1490.00,0.0364
1489.00,0.0367
1488.00,0.0368
1487.00,0.0368
1486.00,0.0366
1485.00,0.0365
1484.00,0.0364
1483.00,0.0364
1482.00,0.0364
1481.00,0.0364
1480.00,0.0365
1479.00,0.0365
1478.00,0.0366
1477.00,0.0366
1476.00,0.0367
1475.00,0.0366
1474.00,0.0365
1473.00,0.0366
1472.00,0.0370
1471.00,0.0373
1470.00,0.0374
1469.00,0.0375
1468.00,0.0376
1467.00,0.0376
1466.00,0.0377
1465.00,0.0377
1464.00,0.0378
1463.00,0.0379
1462.00,0.0379
1461.00,0.0379
1460.00,0.0379
1459.00,0.0377
1458.00,0.0375
1457.00,0.0376
1456.00,0.0379
1455.00,0.0382
1454.00,0.0384
1453.00,0.0385
1452.00,0.0387
1451.00,0.0388
1450.00,0.0388
1449.00,0.0390
1448.00,0.0392
1447.00,0.0393
1446.00,0.0393
1445.00,0.0393
1444.00,0.0393
1443.00,0.0394
1442.00,0.0394
1441.00,0.0394
1440.00,0.0394
1439.00,0.0394
1438.00,0.0394
1437.00,0.0395
1436.00,0.0398
1435.00,0.0400
1434.00,0.0401
1433.00,0.0402
1432.00,0.0403
1431.00,0.0404
1430.00,0.0405
1429.00,0.0406
1428.00,0.0407
1427.00,0.0407
1426.00,0.0407
1425.00,0.0408
1424.00,0.0409
1423.00,0.0410
1422.00,0.0410
1421.00,0.0409
1420.00,0.0410
1419.00,0.0413
1418.00,0.0415
1417.00,0.0415
1416.00,0.0416
1415.00,0.0415
1414.00,0.0415
1413.00,0.0415
1412.00,0.0415
1411.00,0.0416
1410.00,0.0416
1409.00,0.0415
1408.00,0.0415
1407.00,0.0415
1406.00,0.0416
1405.00,0.0416
1404.00,0.0417
1403.00,0.0417
1402.00,0.0417
1401.00,0.0416
1400.00,0.0416
1399.00,0.0417
1398.00,0.0418
1397.00,0.0419
1396.00,0.0420
1395.00,0.0421
1394.00,0.0421
1393.00,0.0421
1392.00,0.0420
1391.00,0.0420
1390.00,0.0421
1389.00,0.0421
1388.00,0.0422
1387.00,0.0424
1386.00,0.0426
1385.00,0.0428
1384.00,0.0428
1383.00,0.0429
1382.00,0.0430
1381.00,0.0430
1380.00,0.0431
1379.00,0.0432
1378.00,0.0432
1377.00,0.0433
1376.00,0.0434
1375.00,0.0436
1374.00,0.0437
1373.00,0.0438
1372.00,0.0438
1371.00,0.0437
1370.00,0.0437
1369.00,0.0438
1368.00,0.0438
1367.00,0.0438
1366.00,0.0437
1365.00,0.0437
1364.00,0.0437
1363.00,0.0438
1362.00,0.0439
1361.00,0.0439
1360.00,0.0439
1359.00,0.0438
1358.00,0.0438
1357.00,0.0437
1356.00,0.0437
1355.00,0.0437
1354.00,0.0436
1353.00,0.0436
1352.00,0.0435
1351.00,0.0435
1350.00,0.0435
1349.00,0.0435
1348.00,0.0435
1347.00,0.0435
1346.00,0.0435
1345.00,0.0434
1344.00,0.0433
1343.00,0.0433
1342.00,0.0433
1341.00,0.0434
1340.00,0.0435
1339.00,0.0436
1338.00,0.0437
1337.00,0.0436
1336.00,0.0435
1335.00,0.0434
1334.00,0.0433
1333.00,0.0433
1332.00,0.0433
1331.00,0.0432
1330.00,0.0432
1329.00,0.0432
1328.00,0.0432
1327.00,0.0432
1326.00,0.0432
1325.00,0.0432
1324.00,0.0432
1323.00,0.0432
1322.00,0.0432
1321.00,0.0432
1320.00,0.0432
1319.00,0.0432
1318.00,0.0433
1317.00,0.0433
1316.00,0.0433
1315.00,0.0434
1314.00,0.0434
1313.00,0.0434
1312.00,0.0434
1311.00,0.0433
1310.00,0.0433
1309.00,0.0433
1308.00,0.0433
1307.00,0.0433
1306.00,0.0433
1305.00,0.0433
1304.00,0.0433
1303.00,0.0433
1302.00,0.0434
1301.00,0.0434
1300.00,0.0434
1299.00,0.0435
1298.00,0.0435
1297.00,0.0435
1296.00,0.0435
1295.00,0.0435
1294.00,0.0436
1293.00,0.0436
1292.00,0.0437
1291.00,0.0438
1290.00,0.0439
1289.00,0.0440
1288.00,0.0441
1287.00,0.0442
1286.00,0.0442
1285.00,0.0442
1284.00,0.0443
1283.00,0.0443
1282.00,0.0444
1281.00,0.0445
1280.00,0.0447
1279.00,0.0448
1278.00,0.0449
1277.00,0.0450
1276.00,0.0450
1275.00,0.0451
1274.00,0.0452
1273.00,0.0453
1272.00,0.0454
1271.00,0.0455
1270.00,0.0456
1269.00,0.0456
1268.00,0.0457
1267.00,0.0458
1266.00,0.0459
1265.00,0.0459
1264.00,0.0460
1263.00,0.0460
1262.00,0.0462
1261.00,0.0464
1260.00,0.0466
1259.00,0.0468
1258.00,0.0470
1257.00,0.0472
1256.00,0.0474
1255.00,0.0476
1254.00,0.0479
1253.00,0.0481
1252.00,0.0484
1251.00,0.0486
1250.00,0.0488
1249.00,0.0490
1248.00,0.0492
1247.00,0.0494
1246.00,0.0496
1245.00,0.0498
1244.00,0.0499
1243.00,0.0501
1242.00,0.0503
1241.00,0.0504
1240.00,0.0506
1239.00,0.0508
1238.00,0.0509
1237.00,0.0510
1236.00,0.0511
1235.00,0.0512
1234.00,0.0513
1233.00,0.0513
1232.00,0.0514
1231.00,0.0516
1230.00,0.0518
1229.00,0.0519
1228.00,0.0520
1227.00,0.0521
1226.00,0.0521
1225.00,0.0523
1224.00,0.0524
1223.00,0.0526
1222.00,0.0527
1221.00,0.0528
1220.00,0.0528
1219.00,0.0529
1218.00,0.0529
1217.00,0.0530
1216.00,0.0532
1215.00,0.0533
1214.00,0.0535
1213.00,0.0536
1212.00,0.0537
1211.00,0.0539
1210.00,0.0540
1209.00,0.0541
1208.00,0.0542
1207.00,0.0543
1206.00,0.0545
1205.00,0.0546
1204.00,0.0548
1203.00,0.0550
1202.00,0.0551
1201.00,0.0552
1200.00,0.0554
1199.00,0.0555
1198.00,0.0555
1197.00,0.0555
1196.00,0.0556
1195.00,0.0558
1194.00,0.0560
1193.00,0.0562
1192.00,0.0564
1191.00,0.0566
1190.00,0.0567
1189.00,0.0569
1188.00,0.0571
1187.00,0.0572
1186.00,0.0574
1185.00,0.0576
1184.00,0.0578
1183.00,0.0580
1182.00,0.0581
1181.00,0.0583
1180.00,0.0586
1179.00,0.0589
1178.00,0.0592
1177.00,0.0595
1176.00,0.0597
1175.00,0.0600
1174.00,0.0602
1173.00,0.0604
1172.00,0.0606
1171.00,0.0608
1170.00,0.0611
1169.00,0.0614
1168.00,0.0618
1167.00,0.0621
1166.00,0.0625
1165.00,0.0627
1164.00,0.0630
1163.00,0.0631
1162.00,0.0631
1161.00,0.0631
1160.00,0.0631
1159.00,0.0630
1158.00,0.0630
1157.00,0.0630
1156.00,0.0630
1155.00,0.0631
1154.00,0.0633
1153.00,0.0635
1152.00,0.0638
1151.00,0.0640
1150.00,0.0642
1149.00,0.0645
1148.00,0.0648
1147.00,0.0651
1146.00,0.0655
1145.00,0.0658
1144.00,0.0660
1143.00,0.0662
1142.00,0.0664
1141.00,0.0666
1140.00,0.0669
1139.00,0.0672
1138.00,0.0675
1137.00,0.0679
1136.00,0.0684
1135.00,0.0689
1134.00,0.0694
1133.00,0.0700
1132.00,0.0705
1131.00,0.0710
1130.00,0.0714
1129.00,0.0720
1128.00,0.0728
1127.00,0.0736
1126.00,0.0745
1125.00,0.0755
1124.00,0.0766
1123.00,0.0778
1122.00,0.0790
1121.00,0.0803
1120.00,0.0816
1119.00,0.0829
1118.00,0.0841
1117.00,0.0849
1116.00,0.0855
1115.00,0.0859
1114.00,0.0861
1113.00,0.0862
1112.00,0.0862
1111.00,0.0863
1110.00,0.0866
1109.00,0.0871
1108.00,0.0877
1107.00,0.0884
1106.00,0.0891
1105.00,0.0898
1104.00,0.0906
1103.00,0.0914
1102.00,0.0921
1101.00,0.0927
1100.00,0.0934
1099.00,0.0939
1098.00,0.0944
1097.00,0.0949
1096.00,0.0954
1095.00,0.0959
1094.00,0.0964
1093.00,0.0970
1092.00,0.0974
1091.00,0.0978
1090.00,0.0981
1089.00,0.0984
1088.00,0.0988
1087.00,0.0992
1086.00,0.0995
1085.00,0.0997
1084.00,0.1000
1083.00,0.1004
1082.00,0.1007
1081.00,0.1010
1080.00,0.1013
1079.00,0.1015
1078.00,0.1018
1077.00,0.1023
1076.00,0.1028
1075.00,0.1031
1074.00,0.1034
1073.00,0.1037
1072.00,0.1041
1071.00,0.1045
1070.00,0.1049
1069.00,0.1054
1068.00,0.1059
1067.00,0.1064
1066.00,0.1069
1065.00,0.1074
1064.00,0.1080
1063.00,0.1086
1062.00,0.1092
1061.00,0.1098
1060.00,0.1104
1059.00,0.1109
1058.00,0.1114
1057.00,0.1119
1056.00,0.1125
1055.00,0.1132
1054.00,0.1139
1053.00,0.1148
1052.00,0.1158
1051.00,0.1168
1050.00,0.1178
1049.00,0.1187
1048.00,0.1196
1047.00,0.1205
1046.00,0.1213
1045.00,0.1223
1044.00,0.1233
1043.00,0.1243
1042.00,0.1254
1041.00,0.1265
1040.00,0.1278
1039.00,0.1291
1038.00,0.1304
1037.00,0.1317
1036.00,0.1331
1035.00,0.1343
1034.00,0.1353
1033.00,0.1361
1032.00,0.1366
1031.00,0.1366
1030.00,0.1363
1029.00,0.1358
1028.00,0.1352
1027.00,0.1344
1026.00,0.1334
1025.00,0.1325
1024.00,0.1316
1023.00,0.1307
1022.00,0.1299
1021.00,0.1292
1020.00,0.1286
1019.00,0.1283
1018.00,0.1281
1017.00,0.1281
1016.00,0.1285
1015.00,0.1290
1014.00,0.1296
1013.00,0.1303
1012.00,0.1312
1011.00,0.1321
1010.00,0.1329
1009.00,0.1336
1008.00,0.1342
1007.00,0.1347
1006.00,0.1350
1005.00,0.1353
1004.00,0.1355
1003.00,0.1355
1002.00,0.1351
1001.00,0.1346
1000.00,0.1339
999.00,0.1330
998.00,0.1318
997.00,0.1304
996.00,0.1289
995.00,0.1272
994.00,0.1256
993.00,0.1241
992.00,0.1226
991.00,0.1212
990.00,0.1197
989.00,0.1182
988.00,0.1168
987.00,0.1156
986.00,0.1143
985.00,0.1130
984.00,0.1118
983.00,0.1106
982.00,0.1093
981.00,0.1081
980.00,0.1068
979.00,0.1056
978.00,0.1045
977.00,0.1035
976.00,0.1026
975.00,0.1017
974.00,0.1008
973.00,0.0999
972.00,0.0990
971.00,0.0983
970.00,0.0976
969.00,0.0969
968.00,0.0963
967.00,0.0956
966.00,0.0950
965.00,0.0944
964.00,0.0939
963.00,0.0933
962.00,0.0926
961.00,0.0920
960.00,0.0914
959.00,0.0909
958.00,0.0904
957.00,0.0900
956.00,0.0898
955.00,0.0896
954.00,0.0894
953.00,0.0892
952.00,0.0891
951.00,0.0889
950.00,0.0888
949.00,0.0888
948.00,0.0890
947.00,0.0893
946.00,0.0897
945.00,0.0901
944.00,0.0906
943.00,0.0910
942.00,0.0916
941.00,0.0921
940.00,0.0925
939.00,0.0928
938.00,0.0929
937.00,0.0929
936.00,0.0929
935.00,0.0927
934.00,0.0924
933.00,0.0920
932.00,0.0916
931.00,0.0912
930.00,0.0909
929.00,0.0907
928.00,0.0907
927.00,0.0909
926.00,0.0912
925.00,0.0916
924.00,0.0921
923.00,0.0927
922.00,0.0933
921.00,0.0940
920.00,0.0949
919.00,0.0960
918.00,0.0972
917.00,0.0984
916.00,0.0996
915.00,0.1006
914.00,0.1012
913.00,0.1016
912.00,0.1017
911.00,0.1014
910.00,0.1008
909.00,0.0999
908.00,0.0988
907.00,0.0975
906.00,0.0963
905.00,0.0951
904.00,0.0940
903.00,0.0929
902.00,0.0918
901.00,0.0907
900.00,0.0897
899.00,0.0887
898.00,0.0876
897.00,0.0864
896.00,0.0853
895.00,0.0842
894.00,0.0832
893.00,0.0824
892.00,0.0817
891.00,0.0810
890.00,0.0803
889.00,0.0796
888.00,0.0789
887.00,0.0782
886.00,0.0776
885.00,0.0771
884.00,0.0766
883.00,0.0761
882.00,0.0757
881.00,0.0752
880.00,0.0747
879.00,0.0741
878.00,0.0735
877.00,0.0730
876.00,0.0726
875.00,0.0722
874.00,0.0718
873.00,0.0715
872.00,0.0711
871.00,0.0706
870.00,0.0702
869.00,0.0699
868.00,0.0696
867.00,0.0692
866.00,0.0687
865.00,0.0683
864.00,0.0681
863.00,0.0679
862.00,0.0677
861.00,0.0675
860.00,0.0674
859.00,0.0672
858.00,0.0670
857.00,0.0669
856.00,0.0668
855.00,0.0667
854.00,0.0666
853.00,0.0665
852.00,0.0663
851.00,0.0660
850.00,0.0658
849.00,0.0656
848.00,0.0657
847.00,0.0659
846.00,0.0661
845.00,0.0662
844.00,0.0664
843.00,0.0665
842.00,0.0665
841.00,0.0665
840.00,0.0665
839.00,0.0666
838.00,0.0668
837.00,0.0670
836.00,0.0673
835.00,0.0674
834.00,0.0674
833.00,0.0674
832.00,0.0674
831.00,0.0676
830.00,0.0677
829.00,0.0679
828.00,0.0679
827.00,0.0679
826.00,0.0679
825.00,0.0680
824.00,0.0682
823.00,0.0684
822.00,0.0686
821.00,0.0688
820.00,0.0690
819.00,0.0692
818.00,0.0692
817.00,0.0693
816.00,0.0695
815.00,0.0697
814.00,0.0699
813.00,0.0702
812.00,0.0706
811.00,0.0712
810.00,0.0719
809.00,0.0728
808.00,0.0738
807.00,0.0748
806.00,0.0759
805.00,0.0771
804.00,0.0784
803.00,0.0797
802.00,0.0811
801.00,0.0824
800.00,0.0836
799.00,0.0844
798.00,0.0847
797.00,0.0849
796.00,0.0850
795.00,0.0852
794.00,0.0851
793.00,0.0849
792.00,0.0846
791.00,0.0843
790.00,0.0841
789.00,0.0840
788.00,0.0840
787.00,0.0840
786.00,0.0840
785.00,0.0841
784.00,0.0843
783.00,0.0846
782.00,0.0848
781.00,0.0850
780.00,0.0851
779.00,0.0852
778.00,0.0851
777.00,0.0850
776.00,0.0848
775.00,0.0845
774.00,0.0841
773.00,0.0837
772.00,0.0833
771.00,0.0830
770.00,0.0828
769.00,0.0825
768.00,0.0824
767.00,0.0823
766.00,0.0823
765.00,0.0824
764.00,0.0826
763.00,0.0828
762.00,0.0830
761.00,0.0833
760.00,0.0835
759.00,0.0838
758.00,0.0841
757.00,0.0844
756.00,0.0846
755.00,0.0848
754.00,0.0850
753.00,0.0851
752.00,0.0853
751.00,0.0854
750.00,0.0855
749.00,0.0854
748.00,0.0852
747.00,0.0850
746.00,0.0847
745.00,0.0844
744.00,0.0841
743.00,0.0838
742.00,0.0834
741.00,0.0829
740.00,0.0823
739.00,0.0818
738.00,0.0814
737.00,0.0812
736.00,0.0809
735.00,0.0807
734.00,0.0805
733.00,0.0804
732.00,0.0803
731.00,0.0802
730.00,0.0800
729.00,0.0797
728.00,0.0794
727.00,0.0792
726.00,0.0789
725.00,0.0789
724.00,0.0789
723.00,0.0789
722.00,0.0790
721.00,0.0791
720.00,0.0793
719.00,0.0794
718.00,0.0795
717.00,0.0795
716.00,0.0797
715.00,0.0801
714.00,0.0806
713.00,0.0811
712.00,0.0816
711.00,0.0820
710.00,0.0823
709.00,0.0828
708.00,0.0834
707.00,0.0841
706.00,0.0851
705.00,0.0863
704.00,0.0876
703.00,0.0886
702.00,0.0894
701.00,0.0900
700.00,0.0908
699.00,0.0916
698.00,0.0925
697.00,0.0934
696.00,0.0943
695.00,0.0950
694.00,0.0953
693.00,0.0955
692.00,0.0956
691.00,0.0959
690.00,0.0960
689.00,0.0960
688.00,0.0959
687.00,0.0958
686.00,0.0956
685.00,0.0953
684.00,0.0952
683.00,0.0951
682.00,0.0951
681.00,0.0954
680.00,0.0956
679.00,0.0956
678.00,0.0956
677.00,0.0956
676.00,0.0957
675.00,0.0955
674.00,0.0950
673.00,0.0943
672.00,0.0938
671.00,0.0935
670.00,0.0935
669.00,0.0945
668.00,0.0964
667.00,0.0973
666.00,0.0967
665.00,0.0958
664.00,0.0950
663.00,0.0943
662.00,0.0938
661.00,0.0940
660.00,0.0948
659.00,0.0957
658.00,0.0962
657.00,0.0961
656.00,0.0957
655.00,0.0954
654.00,0.0951
653.00,0.0949
652.00,0.0948
651.00,0.0948
650.00,0.0949
