Created as New Dataset,
cm-1,A
4000.00,0.0169
3999.00,0.0169
3998.00,0.0169
3997.00,0.0170
3996.00,0.0170
3995.00,0.0170
3994.00,0.0171
3993.00,0.0171
3992.00,0.0171
3991.00,0.0170
3990.00,0.0170
3989.00,0.0169
3988.00,0.0169
3987.00,0.0169
3986.00,0.0169
3985.00,0.0169
3984.00,0.0169
3983.00,0.0169
3982.00,0.0169
3981.00,0.0169
3980.00,0.0169
3979.00,0.0170
3978.00,0.0170
3977.00,0.0170
3976.00,0.0170
3975.00,0.0170
3974.00,0.0170
3973.00,0.0170
3972.00,0.0170
3971.00,0.0169
3970.00,0.0169
3969.00,0.0168
3968.00,0.0168
3967.00,0.0168
3966.00,0.0168
3965.00,0.0169
3964.00,0.0169
3963.00,0.0170
3962.00,0.0170
3961.00,0.0170
3960.00,0.0170
3959.00,0.0170
3958.00,0.0170
3957.00,0.0169
3956.00,0.0169
3955.00,0.0169
3954.00,0.0169
3953.00,0.0170
3952.00,0.0171
3951.00,0.0171
3950.00,0.0172
3949.00,0.0172
3948.00,0.0172
3947.00,0.0173
3946.00,0.0174
3945.00,0.0174
3944.00,0.0174
3943.00,0.0173
3942.00,0.0172
3941.00,0.0172
3940.00,0.0172
3939.00,0.0171
3938.00,0.0170
3937.00,0.0169
3936.00,0.0170
3935.00,0.0171
3934.00,0.0172
3933.00,0.0173
3932.00,0.0173
3931.00,0.0174
3930.00,0.0174
3929.00,0.0174
3928.00,0.0174
3927.00,0.0174
3926.00,0.0174
3925.00,0.0173
3924.00,0.0173
3923.00,0.0173
3922.00,0.0174
3921.00,0.0174
3920.00,0.0173
3919.00,0.0173
3918.00,0.0173
3917.00,0.0172
3916.00,0.0172
3915.00,0.0171
3914.00,0.0170
3913.00,0.0169
3912.00,0.0168
3911.00,0.0168
3910.00,0.0168
3909.00,0.0169
3908.00,0.0172
3907.00,0.0174
3906.00,0.0175
3905.00,0.0176
3904.00,0.0177
3903.00,0.0179
3902.00,0.0182
3901.00,0.0183
3900.00,0.0181
3899.00,0.0178
3898.00,0.0176
3897.00,0.0174
3896.00,0.0174
3895.00,0.0174
3894.00,0.0174
3893.00,0.0173
3892.00,0.0172
3891.00,0.0171
3890.00,0.0172
3889.00,0.0174
3888.00,0.0177
3887.00,0.0176
3886.00,0.0174
3885.00,0.0174
3884.00,0.0177
3883.00,0.0181
3882.00,0.0182
3881.00,0.0178
3880.00,0.0174
3879.00,0.0173
3878.00,0.0174
3877.00,0.0176
3876.00,0.0176
3875.00,0.0174
3874.00,0.0173
3873.00,0.0176
3872.00,0.0179
3871.00,0.0179
3870.00,0.0176
3869.00,0.0175
3868.00,0.0178
3867.00,0.0180
3866.00,0.0180
3865.00,0.0177
3864.00,0.0175
3863.00,0.0175
3862.00,0.0175
3861.00,0.0174
3860.00,0.0173
3859.00,0.0171
3858.00,0.0172
3857.00,0.0174
3856.00,0.0176
3855.00,0.0176
3854.00,0.0175
3853.00,0.0176
3852.00,0.0178
3851.00,0.0178
3850.00,0.0177
3849.00,0.0174
3848.00,0.0171
3847.00,0.0169
3846.00,0.0169
3845.00,0.0170
3844.00,0.0170
3843.00,0.0172
3842.00,0.0175
3841.00,0.0178
3840.00,0.0179
3839.00,0.0179
3838.00,0.0178
3837.00,0.0177
3836.00,0.0177
3835.00,0.0177
3834.00,0.0176
3833.00,0.0174
3832.00,0.0171
3831.00,0.0170
3830.00,0.0170
3829.00,0.0171
3828.00,0.0171
3827.00,0.0170
3826.00,0.0169
3825.00,0.0171
3824.00,0.0174
3823.00,0.0176
3822.00,0.0174
3821.00,0.0172
3820.00,0.0173
3819.00,0.0177
3818.00,0.0179
3817.00,0.0175
3816.00,0.0170
3815.00,0.0167
3814.00,0.0168
3813.00,0.0169
3812.00,0.0167
3811.00,0.0166
3810.00,0.0166
3809.00,0.0166
3808.00,0.0166
3807.00,0.0164
3806.00,0.0165
3805.00,0.0169
3804.00,0.0174
3803.00,0.0174
3802.00,0.0171
3801.00,0.0170
3800.00,0.0172
3799.00,0.0175
3798.00,0.0175
3797.00,0.0171
3796.00,0.0167
3795.00,0.0166
3794.00,0.0166
3793.00,0.0166
3792.00,0.0164
3791.00,0.0163
3790.00,0.0163
3789.00,0.0163
3788.00,0.0164
3787.00,0.0164
3786.00,0.0164
3785.00,0.0163
3784.00,0.0164
3783.00,0.0165
3782.00,0.0167
3781.00,0.0166
3780.00,0.0165
3779.00,0.0163
3778.00,0.0163
3777.00,0.0164
3776.00,0.0164
3775.00,0.0163
3774.00,0.0162
3773.00,0.0163
3772.00,0.0164
3771.00,0.0164
3770.00,0.0164
3769.00,0.0165
3768.00,0.0168
3767.00,0.0169
3766.00,0.0167
3765.00,0.0165
3764.00,0.0165
3763.00,0.0167
3762.00,0.0168
3761.00,0.0168
3760.00,0.0167
3759.00,0.0167
3758.00,0.0167
3757.00,0.0167
3756.00,0.0168
3755.00,0.0170
3754.00,0.0170
3753.00,0.0169
3752.00,0.0168
3751.00,0.0170
3750.00,0.0173
3749.00,0.0175
3748.00,0.0178
3747.00,0.0181
3746.00,0.0180
3745.00,0.0174
3744.00,0.0170
3743.00,0.0170
3742.00,0.0173
3741.00,0.0173
3740.00,0.0172
3739.00,0.0171
3738.00,0.0172
3737.00,0.0173
3736.00,0.0175
3735.00,0.0176
3734.00,0.0177
3733.00,0.0175
3732.00,0.0171
3731.00,0.0168
3730.00,0.0167
3729.00,0.0167
3728.00,0.0167
3727.00,0.0167
3726.00,0.0167
3725.00,0.0169
3724.00,0.0170
3723.00,0.0170
3722.00,0.0169
3721.00,0.0168
3720.00,0.0168
3719.00,0.0167
3718.00,0.0166
3717.00,0.0166
3716.00,0.0167
3715.00,0.0169
3714.00,0.0171
3713.00,0.0171
3712.00,0.0172
3711.00,0.0175
3710.00,0.0177
3709.00,0.0177
3708.00,0.0176
3707.00,0.0175
3706.00,0.0174
3705.00,0.0174
3704.00,0.0175
3703.00,0.0177
3702.00,0.0178
3701.00,0.0179
3700.00,0.0181
3699.00,0.0182
3698.00,0.0182
3697.00,0.0181
3696.00,0.0181
3695.00,0.0182
3694.00,0.0184
3693.00,0.0186
3692.00,0.0187
3691.00,0.0188
3690.00,0.0189
3689.00,0.0188
3688.00,0.0187
3687.00,0.0185
3686.00,0.0184
3685.00,0.0182
3684.00,0.0179
3683.00,0.0178
3682.00,0.0177
3681.00,0.0176
3680.00,0.0176
3679.00,0.0178
3678.00,0.0182
3677.00,0.0185
3676.00,0.0186
3675.00,0.0187
3674.00,0.0189
3673.00,0.0193
3672.00,0.0193
3671.00,0.0190
3670.00,0.0187
3669.00,0.0187
3668.00,0.0188
3667.00,0.0188
3666.00,0.0186
3665.00,0.0184
3664.00,0.0182
3663.00,0.0182
3662.00,0.0182
3661.00,0.0183
3660.00,0.0185
3659.00,0.0188
3658.00,0.0190
3657.00,0.0192
3656.00,0.0194
3655.00,0.0198
3654.00,0.0202
3653.00,0.0206
3652.00,0.0207
3651.00,0.0207
3650.00,0.0209
3649.00,0.0216
3648.00,0.0221
3647.00,0.0221
3646.00,0.0218
3645.00,0.0214
3644.00,0.0211
3643.00,0.0208
3642.00,0.0206
3641.00,0.0205
3640.00,0.0205
3639.00,0.0205
3638.00,0.0205
3637.00,0.0206
3636.00,0.0207
3635.00,0.0207
3634.00,0.0207
3633.00,0.0208
3632.00,0.0212
3631.00,0.0216
3630.00,0.0218
3629.00,0.0221
3628.00,0.0224
3627.00,0.0227
3626.00,0.0228
3625.00,0.0227
3624.00,0.0226
3623.00,0.0227
3622.00,0.0230
3621.00,0.0234
3620.00,0.0236
3619.00,0.0238
3618.00,0.0239
3617.00,0.0240
3616.00,0.0239
3615.00,0.0236
3614.00,0.0233
3613.00,0.0231
3612.00,0.0231
3611.00,0.0232
3610.00,0.0233
3609.00,0.0233
3608.00,0.0232
3607.00,0.0232
3606.00,0.0232
3605.00,0.0232
3604.00,0.0231
3603.00,0.0230
3602.00,0.0230
3601.00,0.0231
3600.00,0.0232
3599.00,0.0233
3598.00,0.0234
3597.00,0.0235
3596.00,0.0236
3595.00,0.0237
3594.00,0.0237
3593.00,0.0237
3592.00,0.0237
3591.00,0.0238
3590.00,0.0240
3589.00,0.0242
3588.00,0.0244
3587.00,0.0247
3586.00,0.0248
3585.00,0.0248
3584.00,0.0246
3583.00,0.0244
3582.00,0.0242
3581.00,0.0241
3580.00,0.0241
3579.00,0.0242
3578.00,0.0242
3577.00,0.0242
3576.00,0.0241
3575.00,0.0241
3574.00,0.0241
3573.00,0.0241
3572.00,0.0242
3571.00,0.0244
3570.00,0.0247
3569.00,0.0250
3568.00,0.0254
3567.00,0.0259
3566.00,0.0262
3565.00,0.0262
3564.00,0.0261
3563.00,0.0259
3562.00,0.0256
3561.00,0.0254
3560.00,0.0253
3559.00,0.0252
3558.00,0.0252
3557.00,0.0251
3556.00,0.0251
3555.00,0.0252
3554.00,0.0252
3553.00,0.0254
3552.00,0.0255
3551.00,0.0256
3550.00,0.0257
3549.00,0.0258
3548.00,0.0260
3547.00,0.0261
3546.00,0.0263
3545.00,0.0264
3544.00,0.0264
3543.00,0.0263
3542.00,0.0262
3541.00,0.0261
3540.00,0.0261
3539.00,0.0261
3538.00,0.0262
3537.00,0.0263
3536.00,0.0264
3535.00,0.0264
3534.00,0.0264
3533.00,0.0263
3532.00,0.0263
3531.00,0.0264
3530.00,0.0265
3529.00,0.0266
3528.00,0.0268
3527.00,0.0269
3526.00,0.0270
3525.00,0.0271
3524.00,0.0272
3523.00,0.0271
3522.00,0.0271
3521.00,0.0270
3520.00,0.0270
3519.00,0.0270
3518.00,0.0270
3517.00,0.0270
3516.00,0.0271
3515.00,0.0271
3514.00,0.0271
3513.00,0.0272
3512.00,0.0273
3511.00,0.0274
3510.00,0.0275
3509.00,0.0276
3508.00,0.0276
3507.00,0.0276
3506.00,0.0277
3505.00,0.0278
3504.00,0.0279
3503.00,0.0280
3502.00,0.0280
3501.00,0.0280
3500.00,0.0280
3499.00,0.0280
3498.00,0.0280
3497.00,0.0280
3496.00,0.0280
3495.00,0.0280
3494.00,0.0280
3493.00,0.0280
3492.00,0.0281
3491.00,0.0281
3490.00,0.0281
3489.00,0.0281
3488.00,0.0282
3487.00,0.0283
3486.00,0.0284
3485.00,0.0285
3484.00,0.0286
3483.00,0.0287
3482.00,0.0287
3481.00,0.0287
3480.00,0.0288
3479.00,0.0288
3478.00,0.0288
3477.00,0.0288
3476.00,0.0288
3475.00,0.0288
3474.00,0.0289
3473.00,0.0289
3472.00,0.0290
3471.00,0.0290
3470.00,0.0291
3469.00,0.0291
3468.00,0.0291
3467.00,0.0292
3466.00,0.0293
3465.00,0.0293
3464.00,0.0294
3463.00,0.0294
3462.00,0.0295
3461.00,0.0295
3460.00,0.0295
3459.00,0.0295
3458.00,0.0295
3457.00,0.0296
3456.00,0.0296
3455.00,0.0297
3454.00,0.0297
3453.00,0.0298
3452.00,0.0298
3451.00,0.0298
3450.00,0.0298
3449.00,0.0299
3448.00,0.0300
3447.00,0.0300
3446.00,0.0301
3445.00,0.0301
3444.00,0.0301
3443.00,0.0301
3442.00,0.0301
3441.00,0.0301
3440.00,0.0301
3439.00,0.0302
3438.00,0.0302
3437.00,0.0302
3436.00,0.0302
3435.00,0.0302
3434.00,0.0303
3433.00,0.0303
3432.00,0.0304
3431.00,0.0304
3430.00,0.0304
3429.00,0.0304
3428.00,0.0305
3427.00,0.0305
3426.00,0.0305
3425.00,0.0306
3424.00,0.0307
3423.00,0.0307
3422.00,0.0308
3421.00,0.0309
3420.00,0.0309
3419.00,0.0309
3418.00,0.0309
3417.00,0.0309
3416.00,0.0308
3415.00,0.0308
3414.00,0.0309
3413.00,0.0309
3412.00,0.0310
3411.00,0.0310
3410.00,0.0310
3409.00,0.0310
3408.00,0.0310
3407.00,0.0311
3406.00,0.0312
3405.00,0.0312
3404.00,0.0313
3403.00,0.0313
3402.00,0.0313
3401.00,0.0313
3400.00,0.0313
3399.00,0.0313
3398.00,0.0313
3397.00,0.0313
3396.00,0.0314
3395.00,0.0315
3394.00,0.0315
3393.00,0.0316
3392.00,0.0315
3391.00,0.0315
3390.00,0.0315
3389.00,0.0314
3388.00,0.0314
3387.00,0.0315
3386.00,0.0315
3385.00,0.0316
3384.00,0.0317
3383.00,0.0317
3382.00,0.0316
3381.00,0.0316
3380.00,0.0316
3379.00,0.0317
3378.00,0.0317
3377.00,0.0318
3376.00,0.0318
3375.00,0.0317
3374.00,0.0318
3373.00,0.0318
3372.00,0.0318
3371.00,0.0319
3370.00,0.0319
3369.00,0.0319
3368.00,0.0319
3367.00,0.0319
3366.00,0.0320
3365.00,0.0321
3364.00,0.0321
3363.00,0.0321
3362.00,0.0321
3361.00,0.0321
3360.00,0.0321
3359.00,0.0321
3358.00,0.0321
3357.00,0.0321
3356.00,0.0321
3355.00,0.0321
3354.00,0.0321
3353.00,0.0321
3352.00,0.0321
3351.00,0.0321
3350.00,0.0321
3349.00,0.0321
3348.00,0.0321
3347.00,0.0321
3346.00,0.0321
3345.00,0.0321
3344.00,0.0321
3343.00,0.0322
3342.00,0.0322
3341.00,0.0322
3340.00,0.0322
3339.00,0.0322
3338.00,0.0322
3337.00,0.0323
3336.00,0.0323
3335.00,0.0323
3334.00,0.0324
3333.00,0.0324
3332.00,0.0324
3331.00,0.0323
3330.00,0.0323
3329.00,0.0323
3328.00,0.0323
3327.00,0.0323
3326.00,0.0324
3325.00,0.0324
3324.00,0.0325
3323.00,0.0325
3322.00,0.0325
3321.00,0.0325
3320.00,0.0324
3319.00,0.0324
3318.00,0.0323
3317.00,0.0323
3316.00,0.0323
3315.00,0.0323
3314.00,0.0323
3313.00,0.0323
3312.00,0.0324
3311.00,0.0324
3310.00,0.0325
3309.00,0.0325
3308.00,0.0325
3307.00,0.0325
3306.00,0.0325
3305.00,0.0325
3304.00,0.0326
3303.00,0.0326
3302.00,0.0325
3301.00,0.0325
3300.00,0.0324
3299.00,0.0324
3298.00,0.0324
3297.00,0.0324
3296.00,0.0324
3295.00,0.0325
3294.00,0.0325
3293.00,0.0325
3292.00,0.0325
3291.00,0.0325
3290.00,0.0325
3289.00,0.0325
3288.00,0.0325
3287.00,0.0325
3286.00,0.0325
3285.00,0.0326
3284.00,0.0326
3283.00,0.0326
3282.00,0.0325
3281.00,0.0325
3280.00,0.0325
3279.00,0.0325
3278.00,0.0325
3277.00,0.0325
3276.00,0.0326
3275.00,0.0326
3274.00,0.0327
3273.00,0.0327
3272.00,0.0327
3271.00,0.0327
3270.00,0.0326
3269.00,0.0325
3268.00,0.0325
3267.00,0.0326
3266.00,0.0326
3265.00,0.0326
3264.00,0.0326
3263.00,0.0326
3262.00,0.0326
3261.00,0.0326
3260.00,0.0325
3259.00,0.0326
3258.00,0.0326
3257.00,0.0326
3256.00,0.0327
3255.00,0.0327
3254.00,0.0327
3253.00,0.0326
3252.00,0.0325
3251.00,0.0325
3250.00,0.0325
3249.00,0.0326
3248.00,0.0327
3247.00,0.0328
3246.00,0.0328
3245.00,0.0329
3244.00,0.0329
3243.00,0.0329
3242.00,0.0328
3241.00,0.0328
3240.00,0.0327
3239.00,0.0328
3238.00,0.0328
3237.00,0.0328
3236.00,0.0329
3235.00,0.0329
3234.00,0.0329
3233.00,0.0329
3232.00,0.0330
3231.00,0.0331
3230.00,0.0331
3229.00,0.0330
3228.00,0.0330
3227.00,0.0329
3226.00,0.0329
3225.00,0.0329
3224.00,0.0329
3223.00,0.0329
3222.00,0.0329
3221.00,0.0329
3220.00,0.0329
3219.00,0.0328
3218.00,0.0328
3217.00,0.0328
3216.00,0.0327
3215.00,0.0327
3214.00,0.0327
3213.00,0.0328
3212.00,0.0328
3211.00,0.0329
3210.00,0.0329
3209.00,0.0329
3208.00,0.0329
3207.00,0.0329
3206.00,0.0329
3205.00,0.0329
3204.00,0.0329
3203.00,0.0329
3202.00,0.0329
3201.00,0.0329
3200.00,0.0330
3199.00,0.0330
3198.00,0.0330
3197.00,0.0330
3196.00,0.0329
3195.00,0.0329
3194.00,0.0329
3193.00,0.0329
3192.00,0.0329
3191.00,0.0329
3190.00,0.0328
3189.00,0.0328
3188.00,0.0328
3187.00,0.0328
3186.00,0.0328
3185.00,0.0328
3184.00,0.0328
3183.00,0.0328
3182.00,0.0328
3181.00,0.0328
3180.00,0.0327
3179.00,0.0327
3178.00,0.0327
3177.00,0.0327
3176.00,0.0327
3175.00,0.0328
3174.00,0.0328
3173.00,0.0327
3172.00,0.0327
3171.00,0.0326
3170.00,0.0326
3169.00,0.0325
3168.00,0.0325
3167.00,0.0325
3166.00,0.0325
3165.00,0.0325
3164.00,0.0325
3163.00,0.0325
3162.00,0.0325
3161.00,0.0325
3160.00,0.0325
3159.00,0.0325
3158.00,0.0325
3157.00,0.0325
3156.00,0.0325
3155.00,0.0324
3154.00,0.0323
3153.00,0.0323
3152.00,0.0323
3151.00,0.0323
3150.00,0.0323
3149.00,0.0323
3148.00,0.0323
3147.00,0.0323
3146.00,0.0323
3145.00,0.0323
3144.00,0.0323
3143.00,0.0323
3142.00,0.0323
3141.00,0.0323
3140.00,0.0322
3139.00,0.0322
3138.00,0.0322
3137.00,0.0322
3136.00,0.0322
3135.00,0.0322
3134.00,0.0321
3133.00,0.0321
3132.00,0.0321
3131.00,0.0321
3130.00,0.0321
3129.00,0.0322
3128.00,0.0322
3127.00,0.0322
3126.00,0.0322
3125.00,0.0321
3124.00,0.0321
3123.00,0.0321
3122.00,0.0321
3121.00,0.0321
3120.00,0.0321
3119.00,0.0320
3118.00,0.0320
3117.00,0.0320
3116.00,0.0320
3115.00,0.0321
3114.00,0.0321
3113.00,0.0321
3112.00,0.0320
3111.00,0.0320
3110.00,0.0319
3109.00,0.0318
3108.00,0.0318
3107.00,0.0318
3106.00,0.0318
3105.00,0.0318
3104.00,0.0319
3103.00,0.0319
3102.00,0.0319
3101.00,0.0319
3100.00,0.0319
3099.00,0.0319
3098.00,0.0319
3097.00,0.0319
3096.00,0.0319
3095.00,0.0319
3094.00,0.0319
3093.00,0.0318
3092.00,0.0318
3091.00,0.0318
3090.00,0.0318
3089.00,0.0318
3088.00,0.0318
3087.00,0.0318
3086.00,0.0318
3085.00,0.0317
3084.00,0.0317
3083.00,0.0317
3082.00,0.0318
3081.00,0.0318
3080.00,0.0318
3079.00,0.0318
3078.00,0.0318
3077.00,0.0318
3076.00,0.0317
3075.00,0.0317
3074.00,0.0317
3073.00,0.0317
3072.00,0.0317
3071.00,0.0317
3070.00,0.0317
3069.00,0.0317
3068.00,0.0316
3067.00,0.0316
3066.00,0.0317
3065.00,0.0317
3064.00,0.0317
3063.00,0.0316
3062.00,0.0316
3061.00,0.0316
3060.00,0.0315
3059.00,0.0315
3058.00,0.0315
3057.00,0.0315
3056.00,0.0315
3055.00,0.0315
3054.00,0.0315
3053.00,0.0315
3052.00,0.0314
3051.00,0.0314
3050.00,0.0313
3049.00,0.0313
3048.00,0.0313
3047.00,0.0313
3046.00,0.0313
3045.00,0.0312
3044.00,0.0312
3043.00,0.0312
3042.00,0.0312
3041.00,0.0312
3040.00,0.0311
3039.00,0.0311
3038.00,0.0311
3037.00,0.0311
3036.00,0.0311
3035.00,0.0311
3034.00,0.0311
3033.00,0.0311
3032.00,0.0311
3031.00,0.0310
3030.00,0.0310
3029.00,0.0310
3028.00,0.0309
3027.00,0.0308
3026.00,0.0307
3025.00,0.0307
3024.00,0.0307
3023.00,0.0307
3022.00,0.0307
3021.00,0.0307
3020.00,0.0307
3019.00,0.0307
3018.00,0.0306
3017.00,0.0307
3016.00,0.0307
3015.00,0.0307
3014.00,0.0307
3013.00,0.0307
3012.00,0.0307
3011.00,0.0307
3010.00,0.0307
3009.00,0.0307
3008.00,0.0306
3007.00,0.0306
3006.00,0.0306
3005.00,0.0305
3004.00,0.0305
3003.00,0.0305
3002.00,0.0304
3001.00,0.0304
3000.00,0.0304
2999.00,0.0304
2998.00,0.0304
2997.00,0.0303
2996.00,0.0303
2995.00,0.0303
2994.00,0.0303
2993.00,0.0303
2992.00,0.0303
2991.00,0.0302
2990.00,0.0302
2989.00,0.0301
2988.00,0.0301
2987.00,0.0301
2986.00,0.0301
2985.00,0.0302
2984.00,0.0302
2983.00,0.0301
2982.00,0.0300
2981.00,0.0300
2980.00,0.0299
2979.00,0.0299
2978.00,0.0299
2977.00,0.0299
2976.00,0.0299
2975.00,0.0299
2974.00,0.0299
2973.00,0.0298
2972.00,0.0297
2971.00,0.0296
2970.00,0.0296
2969.00,0.0295
2968.00,0.0295
2967.00,0.0294
2966.00,0.0293
2965.00,0.0292
2964.00,0.0292
2963.00,0.0291
2962.00,0.0291
2961.00,0.0291
2960.00,0.0291
2959.00,0.0290
2958.00,0.0290
2957.00,0.0289
2956.00,0.0289
2955.00,0.0289
2954.00,0.0289
2953.00,0.0289
2952.00,0.0289
2951.00,0.0290
2950.00,0.0290
2949.00,0.0290
2948.00,0.0289
2947.00,0.0289
2946.00,0.0289
2945.00,0.0289
2944.00,0.0289
2943.00,0.0288
2942.00,0.0287
2941.00,0.0286
2940.00,0.0286
2939.00,0.0285
2938.00,0.0285
2937.00,0.0284
2936.00,0.0283
2935.00,0.0283
2934.00,0.0282
2933.00,0.0281
2932.00,0.0281
2931.00,0.0280
2930.00,0.0279
2929.00,0.0277
2928.00,0.0276
2927.00,0.0275
2926.00,0.0275
2925.00,0.0274
2924.00,0.0274
2923.00,0.0274
2922.00,0.0274
2921.00,0.0274
2920.00,0.0274
2919.00,0.0273
2918.00,0.0273
2917.00,0.0272
2916.00,0.0273
2915.00,0.0274
2914.00,0.0276
2913.00,0.0277
2912.00,0.0278
2911.00,0.0279
2910.00,0.0279
2909.00,0.0280
2908.00,0.0280
2907.00,0.0281
2906.00,0.0281
2905.00,0.0281
2904.00,0.0281
2903.00,0.0281
2902.00,0.0281
2901.00,0.0281
2900.00,0.0281
2899.00,0.0281
2898.00,0.0281
2897.00,0.0281
2896.00,0.0280
2895.00,0.0280
2894.00,0.0280
2893.00,0.0280
2892.00,0.0281
2891.00,0.0281
2890.00,0.0281
2889.00,0.0282
2888.00,0.0282
2887.00,0.0282
2886.00,0.0282
2885.00,0.0281
2884.00,0.0282
2883.00,0.0282
2882.00,0.0282
2881.00,0.0282
2880.00,0.0281
2879.00,0.0281
2878.00,0.0280
2877.00,0.0280
2876.00,0.0280
2875.00,0.0279
2874.00,0.0278
2873.00,0.0277
2872.00,0.0276
2871.00,0.0276
2870.00,0.0276
2869.00,0.0276
2868.00,0.0276
2867.00,0.0275
2866.00,0.0275
2865.00,0.0275
2864.00,0.0275
2863.00,0.0274
2862.00,0.0274
2861.00,0.0273
2860.00,0.0272
2859.00,0.0272
2858.00,0.0272
2857.00,0.0271
2856.00,0.0270
2855.00,0.0269
2854.00,0.0269
2853.00,0.0269
2852.00,0.0269
2851.00,0.0269
2850.00,0.0269
2849.00,0.0269
2848.00,0.0269
2847.00,0.0269
2846.00,0.0270
2845.00,0.0271
2844.00,0.0272
2843.00,0.0272
2842.00,0.0273
2841.00,0.0274
2840.00,0.0274
2839.00,0.0275
2838.00,0.0275
2837.00,0.0275
2836.00,0.0274
2835.00,0.0274
2834.00,0.0274
2833.00,0.0274
2832.00,0.0274
2831.00,0.0273
2830.00,0.0273
2829.00,0.0273
2828.00,0.0274
2827.00,0.0274
2826.00,0.0273
2825.00,0.0273
2824.00,0.0273
2823.00,0.0272
2822.00,0.0272
2821.00,0.0272
2820.00,0.0273
2819.00,0.0272
2818.00,0.0272
2817.00,0.0272
2816.00,0.0272
2815.00,0.0272
2814.00,0.0272
2813.00,0.0271
2812.00,0.0271
2811.00,0.0270
2810.00,0.0270
2809.00,0.0270
2808.00,0.0270
2807.00,0.0270
2806.00,0.0270
2805.00,0.0269
2804.00,0.0269
2803.00,0.0270
2802.00,0.0269
2801.00,0.0269
2800.00,0.0269
2799.00,0.0269
2798.00,0.0269
2797.00,0.0269
2796.00,0.0268
2795.00,0.0268
2794.00,0.0267
2793.00,0.0267
2792.00,0.0267
2791.00,0.0268
2790.00,0.0268
2789.00,0.0268
2788.00,0.0268
2787.00,0.0267
2786.00,0.0267
2785.00,0.0267
2784.00,0.0267
2783.00,0.0266
2782.00,0.0266
2781.00,0.0266
2780.00,0.0265
2779.00,0.0265
2778.00,0.0265
2777.00,0.0265
2776.00,0.0266
2775.00,0.0266
2774.00,0.0266
2773.00,0.0266
2772.00,0.0265
2771.00,0.0265
2770.00,0.0264
2769.00,0.0264
2768.00,0.0264
2767.00,0.0264
2766.00,0.0264
2765.00,0.0263
2764.00,0.0263
2763.00,0.0263
2762.00,0.0263
2761.00,0.0263
2760.00,0.0263
2759.00,0.0263
2758.00,0.0262
2757.00,0.0262
2756.00,0.0262
2755.00,0.0262
2754.00,0.0262
2753.00,0.0262
2752.00,0.0262
2751.00,0.0262
2750.00,0.0262
2749.00,0.0262
2748.00,0.0262
2747.00,0.0262
2746.00,0.0261
2745.00,0.0261
2744.00,0.0260
2743.00,0.0260
2742.00,0.0260
2741.00,0.0260
2740.00,0.0260
2739.00,0.0260
2738.00,0.0260
2737.00,0.0260
2736.00,0.0260
2735.00,0.0259
2734.00,0.0259
2733.00,0.0259
2732.00,0.0259
2731.00,0.0259
2730.00,0.0259
2729.00,0.0259
2728.00,0.0258
2727.00,0.0258
2726.00,0.0258
2725.00,0.0258
2724.00,0.0258
2723.00,0.0258
2722.00,0.0258
2721.00,0.0257
2720.00,0.0257
2719.00,0.0257
2718.00,0.0257
2717.00,0.0257
2716.00,0.0256
2715.00,0.0256
2714.00,0.0256
2713.00,0.0256
2712.00,0.0256
2711.00,0.0256
2710.00,0.0256
2709.00,0.0256
2708.00,0.0255
2707.00,0.0255
2706.00,0.0255
2705.00,0.0255
2704.00,0.0255
2703.00,0.0254
2702.00,0.0254
2701.00,0.0254
2700.00,0.0254
2699.00,0.0254
2698.00,0.0254
2697.00,0.0253
2696.00,0.0253
2695.00,0.0254
2694.00,0.0254
2693.00,0.0254
2692.00,0.0254
2691.00,0.0254
2690.00,0.0253
2689.00,0.0253
2688.00,0.0253
2687.00,0.0253
2686.00,0.0253
2685.00,0.0253
2684.00,0.0252
2683.00,0.0252
2682.00,0.0252
2681.00,0.0252
2680.00,0.0252
2679.00,0.0252
2678.00,0.0252
2677.00,0.0252
2676.00,0.0252
2675.00,0.0252
2674.00,0.0252
2673.00,0.0251
2672.00,0.0251
2671.00,0.0251
2670.00,0.0251
2669.00,0.0250
2668.00,0.0250
2667.00,0.0250
2666.00,0.0250
2665.00,0.0250
2664.00,0.0250
2663.00,0.0251
2662.00,0.0251
2661.00,0.0251
2660.00,0.0251
2659.00,0.0251
2658.00,0.0251
2657.00,0.0251
2656.00,0.0251
2655.00,0.0250
2654.00,0.0250
2653.00,0.0250
2652.00,0.0250
2651.00,0.0251
2650.00,0.0251
2649.00,0.0251
2648.00,0.0251
2647.00,0.0251
2646.00,0.0251
2645.00,0.0251
2644.00,0.0252
2643.00,0.0253
2642.00,0.0253
2641.00,0.0253
2640.00,0.0253
2639.00,0.0252
2638.00,0.0252
2637.00,0.0252
2636.00,0.0251
2635.00,0.0251
2634.00,0.0251
2633.00,0.0251
2632.00,0.0251
2631.00,0.0251
2630.00,0.0251
2629.00,0.0251
2628.00,0.0251
2627.00,0.0252
2626.00,0.0252
2625.00,0.0252
2624.00,0.0252
2623.00,0.0251
2622.00,0.0251
2621.00,0.0251
2620.00,0.0251
2619.00,0.0251
2618.00,0.0251
2617.00,0.0252
2616.00,0.0252
2615.00,0.0252
2614.00,0.0252
2613.00,0.0251
2612.00,0.0251
2611.00,0.0251
2610.00,0.0251
2609.00,0.0251
2608.00,0.0251
2607.00,0.0251
2606.00,0.0250
2605.00,0.0250
2604.00,0.0250
2603.00,0.0250
2602.00,0.0251
2601.00,0.0250
2600.00,0.0250
2599.00,0.0250
2598.00,0.0250
2597.00,0.0250
2596.00,0.0250
2595.00,0.0250
2594.00,0.0250
2593.00,0.0250
2592.00,0.0251
2591.00,0.0251
2590.00,0.0252
2589.00,0.0251
2588.00,0.0251
2587.00,0.0250
2586.00,0.0249
2585.00,0.0249
2584.00,0.0250
2583.00,0.0250
2582.00,0.0250
2581.00,0.0250
2580.00,0.0250
2579.00,0.0250
2578.00,0.0250
2577.00,0.0250
2576.00,0.0250
2575.00,0.0249
2574.00,0.0249
2573.00,0.0249
2572.00,0.0249
2571.00,0.0249
2570.00,0.0249
2569.00,0.0248
2568.00,0.0248
2567.00,0.0249
2566.00,0.0249
2565.00,0.0250
2564.00,0.0250
2563.00,0.0249
2562.00,0.0249
2561.00,0.0249
2560.00,0.0249
2559.00,0.0249
2558.00,0.0249
2557.00,0.0249
2556.00,0.0249
2555.00,0.0249
2554.00,0.0249
2553.00,0.0250
2552.00,0.0250
2551.00,0.0249
2550.00,0.0249
2549.00,0.0249
2548.00,0.0249
2547.00,0.0248
2546.00,0.0248
2545.00,0.0247
2544.00,0.0247
2543.00,0.0248
2542.00,0.0249
2541.00,0.0250
2540.00,0.0250
2539.00,0.0250
2538.00,0.0249
2537.00,0.0249
2536.00,0.0249
2535.00,0.0249
2534.00,0.0248
2533.00,0.0248
2532.00,0.0247
2531.00,0.0247
2530.00,0.0247
2529.00,0.0248
2528.00,0.0249
2527.00,0.0249
2526.00,0.0249
2525.00,0.0248
2524.00,0.0248
2523.00,0.0248
2522.00,0.0248
2521.00,0.0248
2520.00,0.0247
2519.00,0.0247
2518.00,0.0247
2517.00,0.0247
2516.00,0.0246
2515.00,0.0246
2514.00,0.0247
2513.00,0.0247
2512.00,0.0248
2511.00,0.0248
2510.00,0.0247
2509.00,0.0246
2508.00,0.0245
2507.00,0.0245
2506.00,0.0245
2505.00,0.0245
2504.00,0.0246
2503.00,0.0247
2502.00,0.0247
2501.00,0.0246
2500.00,0.0246
2499.00,0.0246
2498.00,0.0245
2497.00,0.0245
2496.00,0.0245
2495.00,0.0245
2494.00,0.0245
2493.00,0.0245
2492.00,0.0245
2491.00,0.0245
2490.00,0.0245
2489.00,0.0245
2488.00,0.0245
2487.00,0.0244
2486.00,0.0244
2485.00,0.0244
2484.00,0.0244
2483.00,0.0244
2482.00,0.0244
2481.00,0.0245
2480.00,0.0245
2479.00,0.0245
2478.00,0.0245
2477.00,0.0244
2476.00,0.0244
2475.00,0.0243
2474.00,0.0243
2473.00,0.0244
2472.00,0.0243
2471.00,0.0243
2470.00,0.0243
2469.00,0.0243
2468.00,0.0243
2467.00,0.0243
2466.00,0.0243
2465.00,0.0243
2464.00,0.0243
2463.00,0.0243
2462.00,0.0243
2461.00,0.0243
2460.00,0.0243
2459.00,0.0243
2458.00,0.0244
2457.00,0.0244
2456.00,0.0244
2455.00,0.0244
2454.00,0.0243
2453.00,0.0242
2452.00,0.0242
2451.00,0.0242
2450.00,0.0243
2449.00,0.0243
2448.00,0.0243
2447.00,0.0243
2446.00,0.0242
2445.00,0.0242
2444.00,0.0242
2443.00,0.0242
2442.00,0.0242
2441.00,0.0241
2440.00,0.0240
2439.00,0.0240
2438.00,0.0240
2437.00,0.0240
2436.00,0.0240
2435.00,0.0239
2434.00,0.0239
2433.00,0.0239
2432.00,0.0239
2431.00,0.0239
2430.00,0.0239
2429.00,0.0239
2428.00,0.0240
2427.00,0.0240
2426.00,0.0240
2425.00,0.0240
2424.00,0.0240
2423.00,0.0239
2422.00,0.0238
2421.00,0.0238
2420.00,0.0238
2419.00,0.0238
2418.00,0.0238
2417.00,0.0238
2416.00,0.0238
2415.00,0.0238
2414.00,0.0238
2413.00,0.0238
2412.00,0.0238
2411.00,0.0238
2410.00,0.0237
2409.00,0.0237
2408.00,0.0237
2407.00,0.0237
2406.00,0.0237
2405.00,0.0237
2404.00,0.0236
2403.00,0.0236
2402.00,0.0236
2401.00,0.0235
2400.00,0.0235
2399.00,0.0235
2398.00,0.0234
2397.00,0.0234
2396.00,0.0234
2395.00,0.0234
2394.00,0.0234
2393.00,0.0234
2392.00,0.0234
2391.00,0.0234
2390.00,0.0233
2389.00,0.0233
2388.00,0.0233
2387.00,0.0232
2386.00,0.0232
2385.00,0.0231
2384.00,0.0230
2383.00,0.0230
2382.00,0.0230
2381.00,0.0229
2380.00,0.0229
2379.00,0.0230
2378.00,0.0230
2377.00,0.0231
2376.00,0.0232
2375.00,0.0233
2374.00,0.0233
2373.00,0.0233
2372.00,0.0233
2371.00,0.0233
2370.00,0.0233
2369.00,0.0232
2368.00,0.0232
2367.00,0.0231
2366.00,0.0232
2365.00,0.0232
2364.00,0.0232
2363.00,0.0233
2362.00,0.0233
2361.00,0.0235
2360.00,0.0236
2359.00,0.0237
2358.00,0.0237
2357.00,0.0237
2356.00,0.0236
2355.00,0.0235
2354.00,0.0234
2353.00,0.0234
2352.00,0.0235
2351.00,0.0236
2350.00,0.0235
2349.00,0.0232
2348.00,0.0227
2347.00,0.0224
2346.00,0.0223
2345.00,0.0226
2344.00,0.0229
2343.00,0.0231
2342.00,0.0233
2341.00,0.0234
2340.00,0.0236
2339.00,0.0237
2338.00,0.0237
2337.00,0.0236
2336.00,0.0235
2335.00,0.0235
2334.00,0.0235
2333.00,0.0235
2332.00,0.0235
2331.00,0.0235
2330.00,0.0236
2329.00,0.0237
2328.00,0.0239
2327.00,0.0240
2326.00,0.0240
2325.00,0.0240
2324.00,0.0239
2323.00,0.0239
2322.00,0.0240
2321.00,0.0239
2320.00,0.0238
2319.00,0.0237
2318.00,0.0236
2317.00,0.0236
2316.00,0.0235
2315.00,0.0235
2314.00,0.0234
2313.00,0.0234
2312.00,0.0233
2311.00,0.0233
2310.00,0.0232
2309.00,0.0232
2308.00,0.0232
2307.00,0.0231
2306.00,0.0231
2305.00,0.0232
2304.00,0.0232
2303.00,0.0232
2302.00,0.0231
2301.00,0.0230
2300.00,0.0229
2299.00,0.0229
2298.00,0.0229
2297.00,0.0229
2296.00,0.0228
2295.00,0.0228
2294.00,0.0227
2293.00,0.0227
2292.00,0.0228
2291.00,0.0228
2290.00,0.0229
2289.00,0.0229
2288.00,0.0229
2287.00,0.0229
2286.00,0.0228
2285.00,0.0228
2284.00,0.0228
2283.00,0.0227
2282.00,0.0226
2281.00,0.0226
2280.00,0.0226
2279.00,0.0227
2278.00,0.0228
2277.00,0.0228
2276.00,0.0228
2275.00,0.0228
2274.00,0.0228
2273.00,0.0229
2272.00,0.0229
2271.00,0.0227
2270.00,0.0226
2269.00,0.0226
2268.00,0.0226
2267.00,0.0227
2266.00,0.0227
2265.00,0.0226
2264.00,0.0226
2263.00,0.0225
2262.00,0.0225
2261.00,0.0225
2260.00,0.0225
2259.00,0.0226
2258.00,0.0226
2257.00,0.0226
2256.00,0.0226
2255.00,0.0225
2254.00,0.0224
2253.00,0.0223
2252.00,0.0223
2251.00,0.0223
2250.00,0.0224
2249.00,0.0225
2248.00,0.0226
2247.00,0.0226
2246.00,0.0225
2245.00,0.0225
2244.00,0.0225
2243.00,0.0225
2242.00,0.0226
2241.00,0.0226
2240.00,0.0227
2239.00,0.0227
2238.00,0.0227
2237.00,0.0227
2236.00,0.0228
2235.00,0.0227
2234.00,0.0227
2233.00,0.0227
2232.00,0.0228
2231.00,0.0230
2230.00,0.0231
2229.00,0.0232
2228.00,0.0233
2227.00,0.0232
2226.00,0.0231
2225.00,0.0230
2224.00,0.0229
2223.00,0.0228
2222.00,0.0228
2221.00,0.0228
2220.00,0.0229
2219.00,0.0230
2218.00,0.0230
2217.00,0.0230
2216.00,0.0230
2215.00,0.0229
2214.00,0.0229
2213.00,0.0229
2212.00,0.0228
2211.00,0.0228
2210.00,0.0227
2209.00,0.0226
2208.00,0.0226
2207.00,0.0226
2206.00,0.0226
2205.00,0.0226
2204.00,0.0226
2203.00,0.0226
2202.00,0.0226
2201.00,0.0226
2200.00,0.0227
2199.00,0.0227
2198.00,0.0227
2197.00,0.0227
2196.00,0.0227
2195.00,0.0227
2194.00,0.0226
2193.00,0.0225
2192.00,0.0224
2191.00,0.0223
2190.00,0.0224
2189.00,0.0225
2188.00,0.0225
2187.00,0.0224
2186.00,0.0222
2185.00,0.0222
2184.00,0.0222
2183.00,0.0223
2182.00,0.0225
2181.00,0.0225
2180.00,0.0225
2179.00,0.0225
2178.00,0.0224
2177.00,0.0223
2176.00,0.0223
2175.00,0.0223
2174.00,0.0224
2173.00,0.0225
2172.00,0.0225
2171.00,0.0224
2170.00,0.0223
2169.00,0.0222
2168.00,0.0223
2167.00,0.0224
2166.00,0.0224
2165.00,0.0225
2164.00,0.0227
2163.00,0.0228
2162.00,0.0228
2161.00,0.0225
2160.00,0.0218
2159.00,0.0212
2158.00,0.0208
2157.00,0.0209
2156.00,0.0211
2155.00,0.0214
2154.00,0.0215
2153.00,0.0216
2152.00,0.0216
2151.00,0.0215
2150.00,0.0215
2149.00,0.0215
2148.00,0.0213
2147.00,0.0212
2146.00,0.0211
2145.00,0.0211
2144.00,0.0212
2143.00,0.0212
2142.00,0.0212
2141.00,0.0212
2140.00,0.0211
2139.00,0.0211
2138.00,0.0210
2137.00,0.0208
2136.00,0.0206
2135.00,0.0204
2134.00,0.0203
2133.00,0.0204
2132.00,0.0204
2131.00,0.0205
2130.00,0.0205
2129.00,0.0205
2128.00,0.0204
2127.00,0.0204
2126.00,0.0204
2125.00,0.0205
2124.00,0.0205
2123.00,0.0205
2122.00,0.0205
2121.00,0.0205
2120.00,0.0206
2119.00,0.0207
2118.00,0.0207
2117.00,0.0207
2116.00,0.0207
2115.00,0.0208
2114.00,0.0207
2113.00,0.0207
2112.00,0.0205
2111.00,0.0205
2110.00,0.0206
2109.00,0.0207
2108.00,0.0208
2107.00,0.0207
2106.00,0.0206
2105.00,0.0204
2104.00,0.0204
2103.00,0.0204
2102.00,0.0204
2101.00,0.0204
2100.00,0.0204
2099.00,0.0204
2098.00,0.0204
2097.00,0.0204
2096.00,0.0204
2095.00,0.0203
2094.00,0.0202
2093.00,0.0202
2092.00,0.0202
2091.00,0.0203
2090.00,0.0203
2089.00,0.0204
2088.00,0.0203
2087.00,0.0203
2086.00,0.0202
2085.00,0.0202
2084.00,0.0203
2083.00,0.0203
2082.00,0.0202
2081.00,0.0201
2080.00,0.0201
2079.00,0.0200
2078.00,0.0201
2077.00,0.0201
2076.00,0.0202
2075.00,0.0203
2074.00,0.0202
2073.00,0.0202
2072.00,0.0201
2071.00,0.0200
2070.00,0.0201
2069.00,0.0201
2068.00,0.0202
2067.00,0.0203
2066.00,0.0204
2065.00,0.0204
2064.00,0.0203
2063.00,0.0202
2062.00,0.0201
2061.00,0.0201
2060.00,0.0201
2059.00,0.0201
2058.00,0.0201
2057.00,0.0202
2056.00,0.0202
2055.00,0.0202
2054.00,0.0202
2053.00,0.0202
2052.00,0.0203
2051.00,0.0203
2050.00,0.0203
2049.00,0.0203
2048.00,0.0202
2047.00,0.0202
2046.00,0.0202
2045.00,0.0203
2044.00,0.0203
2043.00,0.0203
2042.00,0.0203
2041.00,0.0203
2040.00,0.0203
2039.00,0.0203
2038.00,0.0202
2037.00,0.0201
2036.00,0.0200
2035.00,0.0200
2034.00,0.0201
2033.00,0.0201
2032.00,0.0201
2031.00,0.0201
2030.00,0.0201
2029.00,0.0201
2028.00,0.0200
2027.00,0.0198
2026.00,0.0197
2025.00,0.0196
2024.00,0.0196
2023.00,0.0197
2022.00,0.0198
2021.00,0.0198
2020.00,0.0198
2019.00,0.0197
2018.00,0.0194
2017.00,0.0193
2016.00,0.0193
2015.00,0.0195
2014.00,0.0197
2013.00,0.0198
2012.00,0.0197
2011.00,0.0196
2010.00,0.0194
2009.00,0.0192
2008.00,0.0190
2007.00,0.0190
2006.00,0.0190
2005.00,0.0191
2004.00,0.0192
2003.00,0.0192
2002.00,0.0191
2001.00,0.0190
2000.00,0.0190
1999.00,0.0191
1998.00,0.0193
1997.00,0.0194
1996.00,0.0195
1995.00,0.0195
1994.00,0.0195
1993.00,0.0194
1992.00,0.0193
1991.00,0.0191
1990.00,0.0190
1989.00,0.0190
1988.00,0.0189
1987.00,0.0189
1986.00,0.0189
1985.00,0.0190
1984.00,0.0191
1983.00,0.0192
1982.00,0.0193
1981.00,0.0194
1980.00,0.0194
1979.00,0.0193
1978.00,0.0193
1977.00,0.0192
1976.00,0.0192
1975.00,0.0192
1974.00,0.0190
1973.00,0.0189
1972.00,0.0187
1971.00,0.0187
1970.00,0.0188
1969.00,0.0190
1968.00,0.0190
1967.00,0.0188
1966.00,0.0185
1965.00,0.0182
1964.00,0.0182
1963.00,0.0183
1962.00,0.0185
1961.00,0.0186
1960.00,0.0185
1959.00,0.0184
1958.00,0.0182
1957.00,0.0181
1956.00,0.0179
1955.00,0.0177
1954.00,0.0176
1953.00,0.0176
1952.00,0.0177
1951.00,0.0176
1950.00,0.0176
1949.00,0.0175
1948.00,0.0175
1947.00,0.0176
1946.00,0.0178
1945.00,0.0180
1944.00,0.0180
1943.00,0.0179
1942.00,0.0177
1941.00,0.0176
1940.00,0.0175
1939.00,0.0174
1938.00,0.0173
1937.00,0.0172
1936.00,0.0172
1935.00,0.0172
1934.00,0.0172
1933.00,0.0172
1932.00,0.0172
1931.00,0.0171
1930.00,0.0170
1929.00,0.0169
1928.00,0.0168
1927.00,0.0168
1926.00,0.0170
1925.00,0.0172
1924.00,0.0173
1923.00,0.0171
1922.00,0.0168
1921.00,0.0167
1920.00,0.0168
1919.00,0.0168
1918.00,0.0166
1917.00,0.0165
1916.00,0.0164
1915.00,0.0163
1914.00,0.0162
1913.00,0.0162
1912.00,0.0163
1911.00,0.0163
1910.00,0.0163
1909.00,0.0162
1908.00,0.0161
1907.00,0.0160
1906.00,0.0160
1905.00,0.0160
1904.00,0.0159
1903.00,0.0159
1902.00,0.0158
1901.00,0.0158
1900.00,0.0157
1899.00,0.0157
1898.00,0.0158
1897.00,0.0158
1896.00,0.0158
1895.00,0.0157
1894.00,0.0156
1893.00,0.0156
1892.00,0.0157
1891.00,0.0156
1890.00,0.0154
1889.00,0.0152
1888.00,0.0152
1887.00,0.0152
1886.00,0.0152
1885.00,0.0152
1884.00,0.0152
1883.00,0.0151
1882.00,0.0151
1881.00,0.0151
1880.00,0.0150
1879.00,0.0149
1878.00,0.0148
1877.00,0.0147
1876.00,0.0147
1875.00,0.0146
1874.00,0.0146
1873.00,0.0147
1872.00,0.0149
1871.00,0.0150
1870.00,0.0148
1869.00,0.0145
1868.00,0.0143
1867.00,0.0142
1866.00,0.0143
1865.00,0.0143
1864.00,0.0143
1863.00,0.0142
1862.00,0.0141
1861.00,0.0141
1860.00,0.0140
1859.00,0.0140
1858.00,0.0139
1857.00,0.0139
1856.00,0.0139
1855.00,0.0138
1854.00,0.0138
1853.00,0.0136
1852.00,0.0135
1851.00,0.0135
1850.00,0.0135
1849.00,0.0135
1848.00,0.0135
1847.00,0.0136
1846.00,0.0136
1845.00,0.0134
1844.00,0.0130
1843.00,0.0127
1842.00,0.0128
1841.00,0.0130
1840.00,0.0131
1839.00,0.0130
1838.00,0.0129
1837.00,0.0128
1836.00,0.0128
1835.00,0.0128
1834.00,0.0129
1833.00,0.0130
1832.00,0.0132
1831.00,0.0130
1830.00,0.0126
1829.00,0.0124
1828.00,0.0124
1827.00,0.0125
1826.00,0.0124
1825.00,0.0122
1824.00,0.0120
1823.00,0.0119
1822.00,0.0119
1821.00,0.0119
1820.00,0.0119
1819.00,0.0118
1818.00,0.0117
1817.00,0.0117
1816.00,0.0117
1815.00,0.0117
1814.00,0.0117
1813.00,0.0117
1812.00,0.0116
1811.00,0.0115
1810.00,0.0113
1809.00,0.0113
1808.00,0.0112
1807.00,0.0112
1806.00,0.0112
1805.00,0.0113
1804.00,0.0114
1803.00,0.0115
1802.00,0.0115
1801.00,0.0114
1800.00,0.0113
1799.00,0.0112
1798.00,0.0112
1797.00,0.0113
1796.00,0.0115
1795.00,0.0117
1794.00,0.0117
1793.00,0.0115
1792.00,0.0113
1791.00,0.0112
1790.00,0.0112
1789.00,0.0114
1788.00,0.0115
1787.00,0.0115
1786.00,0.0115
1785.00,0.0116
1784.00,0.0118
1783.00,0.0120
1782.00,0.0123
1781.00,0.0123
1780.00,0.0123
1779.00,0.0124
1778.00,0.0126
1777.00,0.0128
1776.00,0.0131
1775.00,0.0135
1774.00,0.0137
1773.00,0.0135
1772.00,0.0134
1771.00,0.0133
1770.00,0.0135
1769.00,0.0137
1768.00,0.0138
1767.00,0.0139
1766.00,0.0141
1765.00,0.0145
1764.00,0.0149
1763.00,0.0150
1762.00,0.0149
1761.00,0.0149
1760.00,0.0151
1759.00,0.0154
1758.00,0.0155
1757.00,0.0155
1756.00,0.0155
1755.00,0.0157
1754.00,0.0159
1753.00,0.0162
1752.00,0.0163
1751.00,0.0164
1750.00,0.0166
1749.00,0.0168
1748.00,0.0171
1747.00,0.0173
1746.00,0.0176
1745.00,0.0178
1744.00,0.0181
1743.00,0.0184
1742.00,0.0187
1741.00,0.0189
1740.00,0.0190
1739.00,0.0192
1738.00,0.0195
1737.00,0.0200
1736.00,0.0205
1735.00,0.0206
1734.00,0.0207
1733.00,0.0210
1732.00,0.0216
1731.00,0.0221
1730.00,0.0226
1729.00,0.0229
1728.00,0.0232
1727.00,0.0235
1726.00,0.0238
1725.00,0.0242
1724.00,0.0245
1723.00,0.0248
1722.00,0.0252
1721.00,0.0257
1720.00,0.0260
1719.00,0.0261
1718.00,0.0261
1717.00,0.0263
1716.00,0.0266
1715.00,0.0268
1714.00,0.0270
1713.00,0.0272
1712.00,0.0274
1711.00,0.0275
1710.00,0.0276
1709.00,0.0278
1708.00,0.0280
1707.00,0.0283
1706.00,0.0283
1705.00,0.0284
1704.00,0.0286
1703.00,0.0288
1702.00,0.0290
1701.00,0.0288
1700.00,0.0286
1699.00,0.0286
1698.00,0.0289
1697.00,0.0293
1696.00,0.0293
1695.00,0.0290
1694.00,0.0290
1693.00,0.0292
1692.00,0.0295
1691.00,0.0296
1690.00,0.0297
1689.00,0.0298
1688.00,0.0301
1687.00,0.0305
1686.00,0.0306
1685.00,0.0305
1684.00,0.0306
1683.00,0.0309
1682.00,0.0312
1681.00,0.0314
1680.00,0.0315
1679.00,0.0316
1678.00,0.0318
1677.00,0.0319
1676.00,0.0320
1675.00,0.0321
1674.00,0.0323
1673.00,0.0326
1672.00,0.0330
1671.00,0.0332
1670.00,0.0334
1669.00,0.0336
1668.00,0.0338
1667.00,0.0340
1666.00,0.0341
1665.00,0.0343
1664.00,0.0345
1663.00,0.0346
1662.00,0.0348
1661.00,0.0350
1660.00,0.0351
1659.00,0.0353
1658.00,0.0354
1657.00,0.0356
1656.00,0.0360
1655.00,0.0363
1654.00,0.0363
1653.00,0.0367
1652.00,0.0368
1651.00,0.0368
1650.00,0.0372
1649.00,0.0375
1648.00,0.0377
1647.00,0.0379
1646.00,0.0383
1645.00,0.0385
1644.00,0.0386
1643.00,0.0387
1642.00,0.0389
1641.00,0.0391
1640.00,0.0392
1639.00,0.0394
1638.00,0.0396
1637.00,0.0399
1636.00,0.0404
1635.00,0.0408
1634.00,0.0410
1633.00,0.0412
1632.00,0.0414
1631.00,0.0417
1630.00,0.0419
1629.00,0.0422
1628.00,0.0425
1627.00,0.0427
1626.00,0.0430
1625.00,0.0432
1624.00,0.0435
1623.00,0.0438
1622.00,0.0440
1621.00,0.0442
1620.00,0.0443
1619.00,0.0444
1618.00,0.0445
1617.00,0.0448
1616.00,0.0451
1615.00,0.0454
1614.00,0.0456
1613.00,0.0458
1612.00,0.0459
1611.00,0.0460
1610.00,0.0462
1609.00,0.0465
1608.00,0.0468
1607.00,0.0469
1606.00,0.0471
1605.00,0.0471
1604.00,0.0471
1603.00,0.0473
1602.00,0.0475
1601.00,0.0476
1600.00,0.0478
1599.00,0.0479
1598.00,0.0480
1597.00,0.0481
1596.00,0.0482
1595.00,0.0483
1594.00,0.0484
1593.00,0.0484
1592.00,0.0484
1591.00,0.0485
1590.00,0.0486
1589.00,0.0487
1588.00,0.0488
1587.00,0.0488
1586.00,0.0488
1585.00,0.0488
1584.00,0.0488
1583.00,0.0488
1582.00,0.0488
1581.00,0.0488
1580.00,0.0488
1579.00,0.0488
1578.00,0.0488
1577.00,0.0488
1576.00,0.0489
1575.00,0.0490
1574.00,0.0490
1573.00,0.0489
1572.00,0.0489
1571.00,0.0489
1570.00,0.0489
1569.00,0.0490
1568.00,0.0489
1567.00,0.0489
1566.00,0.0488
1565.00,0.0486
1564.00,0.0485
1563.00,0.0484
1562.00,0.0483
1561.00,0.0481
1560.00,0.0478
1559.00,0.0484
1558.00,0.0489
1557.00,0.0484
1556.00,0.0480
1555.00,0.0478
1554.00,0.0476
1553.00,0.0474
1552.00,0.0473
1551.00,0.0472
1550.00,0.0471
1549.00,0.0470
1548.00,0.0467
1547.00,0.0465
1546.00,0.0462
1545.00,0.0460
1544.00,0.0459
1543.00,0.0458
1542.00,0.0454
1541.00,0.0453
1540.00,0.0455
1539.00,0.0455
1538.00,0.0451
1537.00,0.0448
1536.00,0.0446
1535.00,0.0445
1534.00,0.0445
1533.00,0.0445
1532.00,0.0444
1531.00,0.0441
1530.00,0.0438
1529.00,0.0436
1528.00,0.0435
1527.00,0.0434
1526.00,0.0432
1525.00,0.0430
1524.00,0.0428
1523.00,0.0426
1522.00,0.0424
1521.00,0.0424
1520.00,0.0425
1519.00,0.0425
1518.00,0.0425
1517.00,0.0424
1516.00,0.0422
1515.00,0.0420
1514.00,0.0417
1513.00,0.0414
1512.00,0.0413
1511.00,0.0413
1510.00,0.0414
1509.00,0.0415
1508.00,0.0415
1507.00,0.0415
1506.00,0.0413
1505.00,0.0407
1504.00,0.0404
1503.00,0.0403
1502.00,0.0401
1501.00,0.0400
1500.00,0.0398
1499.00,0.0397
1498.00,0.0396
1497.00,0.0396
1496.00,0.0398
1495.00,0.0399
1494.00,0.0399
1493.00,0.0400
1492.00,0.0400
1491.00,0.0401
1490.00,0.0402
1489.00,0.0404
1488.00,0.0405
1487.00,0.0404
1486.00,0.0402
1485.00,0.0401
1484.00,0.0400
1483.00,0.0400
1482.00,0.0400
1481.00,0.0400
1480.00,0.0400
1479.00,0.0400
1478.00,0.0400
1477.00,0.0400
1476.00,0.0401
1475.00,0.0401
1474.00,0.0401
1473.00,0.0401
1472.00,0.0403
1471.00,0.0404
1470.00,0.0403
1469.00,0.0403
1468.00,0.0403
1467.00,0.0403
1466.00,0.0403
1465.00,0.0403
1464.00,0.0404
1463.00,0.0404
1462.00,0.0404
1461.00,0.0404
1460.00,0.0404
1459.00,0.0403
1458.00,0.0403
1457.00,0.0404
1456.00,0.0406
1455.00,0.0406
1454.00,0.0407
1453.00,0.0408
1452.00,0.0409
1451.00,0.0410
1450.00,0.0411
1449.00,0.0413
1448.00,0.0414
1447.00,0.0415
1446.00,0.0414
1445.00,0.0413
1444.00,0.0413
1443.00,0.0413
1442.00,0.0413
1441.00,0.0413
1440.00,0.0413
1439.00,0.0414
1438.00,0.0414
1437.00,0.0415
1436.00,0.0417
1435.00,0.0419
1434.00,0.0419
1433.00,0.0420
1432.00,0.0420
1431.00,0.0421
1430.00,0.0422
1429.00,0.0423
1428.00,0.0423
1427.00,0.0423
1426.00,0.0423
1425.00,0.0423
1424.00,0.0424
1423.00,0.0425
1422.00,0.0424
1421.00,0.0423
1420.00,0.0423
1419.00,0.0425
1418.00,0.0427
1417.00,0.0429
1416.00,0.0429
1415.00,0.0429
1414.00,0.0428
1413.00,0.0428
1412.00,0.0429
1411.00,0.0430
1410.00,0.0430
1409.00,0.0429
1408.00,0.0429
1407.00,0.0430
1406.00,0.0431
1405.00,0.0432
1404.00,0.0433
1403.00,0.0434
1402.00,0.0434
1401.00,0.0434
1400.00,0.0435
1399.00,0.0436
1398.00,0.0438
1397.00,0.0439
1396.00,0.0440
1395.00,0.0441
1394.00,0.0442
1393.00,0.0441
1392.00,0.0440
1391.00,0.0440
1390.00,0.0440
1389.00,0.0441
1388.00,0.0442
1387.00,0.0444
1386.00,0.0446
1385.00,0.0446
1384.00,0.0447
1383.00,0.0447
1382.00,0.0447
1381.00,0.0448
1380.00,0.0448
1379.00,0.0449
1378.00,0.0449
1377.00,0.0450
1376.00,0.0451
1375.00,0.0453
1374.00,0.0455
1373.00,0.0455
1372.00,0.0455
1371.00,0.0454
1370.00,0.0455
1369.00,0.0455
1368.00,0.0455
1367.00,0.0455
1366.00,0.0454
1365.00,0.0454
1364.00,0.0456
1363.00,0.0457
1362.00,0.0459
1361.00,0.0459
1360.00,0.0459
1359.00,0.0458
1358.00,0.0458
1357.00,0.0457
1356.00,0.0456
1355.00,0.0456
1354.00,0.0456
1353.00,0.0456
1352.00,0.0455
1351.00,0.0455
1350.00,0.0455
1349.00,0.0456
1348.00,0.0456
1347.00,0.0456
1346.00,0.0456
1345.00,0.0456
1344.00,0.0455
1343.00,0.0455
1342.00,0.0455
1341.00,0.0456
1340.00,0.0457
1339.00,0.0458
1338.00,0.0459
1337.00,0.0458
1336.00,0.0457
1335.00,0.0456
1334.00,0.0455
1333.00,0.0455
1332.00,0.0455
1331.00,0.0455
1330.00,0.0454
1329.00,0.0454
1328.00,0.0453
1327.00,0.0453
1326.00,0.0453
1325.00,0.0453
1324.00,0.0453
1323.00,0.0453
1322.00,0.0453
1321.00,0.0453
1320.00,0.0454
1319.00,0.0454
1318.00,0.0455
1317.00,0.0455
1316.00,0.0456
1315.00,0.0456
1314.00,0.0457
1313.00,0.0457
1312.00,0.0457
1311.00,0.0457
1310.00,0.0456
1309.00,0.0456
1308.00,0.0456
1307.00,0.0457
1306.00,0.0457
1305.00,0.0457
1304.00,0.0458
1303.00,0.0458
1302.00,0.0459
1301.00,0.0459
1300.00,0.0459
1299.00,0.0459
1298.00,0.0460
1297.00,0.0461
1296.00,0.0461
1295.00,0.0462
1294.00,0.0462
1293.00,0.0463
1292.00,0.0463
1291.00,0.0464
1290.00,0.0465
1289.00,0.0466
1288.00,0.0467
1287.00,0.0468
1286.00,0.0468
1285.00,0.0469
1284.00,0.0469
1283.00,0.0470
1282.00,0.0470
1281.00,0.0471
1280.00,0.0472
1279.00,0.0473
1278.00,0.0474
1277.00,0.0475
1276.00,0.0476
1275.00,0.0477
1274.00,0.0477
1273.00,0.0478
1272.00,0.0480
1271.00,0.0481
1270.00,0.0482
1269.00,0.0483
1268.00,0.0483
1267.00,0.0484
1266.00,0.0485
1265.00,0.0485
1264.00,0.0485
1263.00,0.0486
1262.00,0.0488
1261.00,0.0490
1260.00,0.0492
1259.00,0.0495
1258.00,0.0496
1257.00,0.0498
1256.00,0.0500
1255.00,0.0501
1254.00,0.0504
1253.00,0.0506
1252.00,0.0509
1251.00,0.0511
1250.00,0.0513
1249.00,0.0514
1248.00,0.0516
1247.00,0.0518
1246.00,0.0520
1245.00,0.0522
1244.00,0.0524
1243.00,0.0526
1242.00,0.0528
1241.00,0.0529
1240.00,0.0531
1239.00,0.0532
1238.00,0.0533
1237.00,0.0534
1236.00,0.0536
1235.00,0.0537
1234.00,0.0539
1233.00,0.0540
1232.00,0.0541
1231.00,0.0542
1230.00,0.0544
1229.00,0.0545
1228.00,0.0546
1227.00,0.0547
1226.00,0.0548
1225.00,0.0550
1224.00,0.0551
1223.00,0.0553
1222.00,0.0553
1221.00,0.0553
1220.00,0.0554
1219.00,0.0555
1218.00,0.0556
1217.00,0.0557
1216.00,0.0558
1215.00,0.0559
1214.00,0.0559
1213.00,0.0560
1212.00,0.0561
1211.00,0.0561
1210.00,0.0562
1209.00,0.0563
1208.00,0.0564
1207.00,0.0564
1206.00,0.0564
1205.00,0.0565
1204.00,0.0565
1203.00,0.0565
1202.00,0.0566
1201.00,0.0566
1200.00,0.0567
1199.00,0.0568
1198.00,0.0569
1197.00,0.0570
1196.00,0.0571
1195.00,0.0571
1194.00,0.0572
1193.00,0.0573
1192.00,0.0573
1191.00,0.0574
1190.00,0.0575
1189.00,0.0576
1188.00,0.0576
1187.00,0.0577
1186.00,0.0577
1185.00,0.0578
1184.00,0.0579
1183.00,0.0579
1182.00,0.0579
1181.00,0.0580
1180.00,0.0581
1179.00,0.0583
1178.00,0.0584
1177.00,0.0584
1176.00,0.0585
1175.00,0.0585
1174.00,0.0586
1173.00,0.0586
1172.00,0.0586
1171.00,0.0587
1170.00,0.0588
1169.00,0.0589
1168.00,0.0591
1167.00,0.0592
1166.00,0.0593
1165.00,0.0594
1164.00,0.0594
1163.00,0.0595
1162.00,0.0595
1161.00,0.0596
1160.00,0.0596
1159.00,0.0597
1158.00,0.0597
1157.00,0.0596
1156.00,0.0596
1155.00,0.0597
1154.00,0.0598
1153.00,0.0599
1152.00,0.0600
1151.00,0.0600
1150.00,0.0600
1149.00,0.0601
1148.00,0.0603
1147.00,0.0605
1146.00,0.0607
1145.00,0.0609
1144.00,0.0610
1143.00,0.0610
1142.00,0.0611
1141.00,0.0611
1140.00,0.0612
1139.00,0.0614
1138.00,0.0616
1137.00,0.0617
1136.00,0.0619
1135.00,0.0620
1134.00,0.0623
1133.00,0.0626
1132.00,0.0628
1131.00,0.0631
1130.00,0.0632
1129.00,0.0634
1128.00,0.0637
1127.00,0.0640
1126.00,0.0643
1125.00,0.0646
1124.00,0.0650
1123.00,0.0654
1122.00,0.0657
1121.00,0.0662
1120.00,0.0667
1119.00,0.0673
1118.00,0.0677
1117.00,0.0680
1116.00,0.0683
1115.00,0.0685
1114.00,0.0687
1113.00,0.0689
1112.00,0.0691
1111.00,0.0693
1110.00,0.0695
1109.00,0.0698
1108.00,0.0701
1107.00,0.0705
1106.00,0.0708
1105.00,0.0712
1104.00,0.0715
1103.00,0.0717
1102.00,0.0720
1101.00,0.0722
1100.00,0.0725
1099.00,0.0728
1098.00,0.0730
1097.00,0.0731
1096.00,0.0732
1095.00,0.0733
1094.00,0.0734
1093.00,0.0736
1092.00,0.0738
1091.00,0.0739
1090.00,0.0741
1089.00,0.0742
1088.00,0.0744
1087.00,0.0746
1086.00,0.0746
1085.00,0.0746
1084.00,0.0746
1083.00,0.0747
1082.00,0.0748
1081.00,0.0749
1080.00,0.0749
1079.00,0.0749
1078.00,0.0750
1077.00,0.0751
1076.00,0.0751
1075.00,0.0751
1074.00,0.0752
1073.00,0.0752
1072.00,0.0753
1071.00,0.0754
1070.00,0.0755
1069.00,0.0755
1068.00,0.0755
1067.00,0.0756
1066.00,0.0756
1065.00,0.0757
1064.00,0.0759
1063.00,0.0760
1062.00,0.0759
1061.00,0.0759
1060.00,0.0759
1059.00,0.0760
1058.00,0.0761
1057.00,0.0761
1056.00,0.0761
1055.00,0.0761
1054.00,0.0761
1053.00,0.0763
1052.00,0.0765
1051.00,0.0768
1050.00,0.0771
1049.00,0.0772
1048.00,0.0773
1047.00,0.0774
1046.00,0.0774
1045.00,0.0775
1044.00,0.0776
1043.00,0.0776
1042.00,0.0776
1041.00,0.0776
1040.00,0.0777
1039.00,0.0777
1038.00,0.0777
1037.00,0.0778
1036.00,0.0779
1035.00,0.0780
1034.00,0.0780
1033.00,0.0779
1032.00,0.0777
1031.00,0.0773
1030.00,0.0767
1029.00,0.0762
1028.00,0.0756
1027.00,0.0750
1026.00,0.0745
1025.00,0.0739
1024.00,0.0735
1023.00,0.0731
1022.00,0.0728
1021.00,0.0726
1020.00,0.0723
1019.00,0.0720
1018.00,0.0717
1017.00,0.0715
1016.00,0.0714
1015.00,0.0713
1014.00,0.0712
1013.00,0.0711
1012.00,0.0711
1011.00,0.0711
1010.00,0.0711
1009.00,0.0710
1008.00,0.0709
1007.00,0.0707
1006.00,0.0705
1005.00,0.0703
1004.00,0.0700
1003.00,0.0698
1002.00,0.0694
1001.00,0.0689
1000.00,0.0683
999.00,0.0677
998.00,0.0671
997.00,0.0664
996.00,0.0656
995.00,0.0649
994.00,0.0642
993.00,0.0637
992.00,0.0633
991.00,0.0628
990.00,0.0622
989.00,0.0617
988.00,0.0612
987.00,0.0609
986.00,0.0605
985.00,0.0602
984.00,0.0598
983.00,0.0595
982.00,0.0592
981.00,0.0589
980.00,0.0586
979.00,0.0583
978.00,0.0580
977.00,0.0577
976.00,0.0574
975.00,0.0571
974.00,0.0569
973.00,0.0567
972.00,0.0565
971.00,0.0564
970.00,0.0563
969.00,0.0563
968.00,0.0562
967.00,0.0561
966.00,0.0559
965.00,0.0558
964.00,0.0556
963.00,0.0555
962.00,0.0553
961.00,0.0552
960.00,0.0551
959.00,0.0550
958.00,0.0548
957.00,0.0547
956.00,0.0546
955.00,0.0547
954.00,0.0548
953.00,0.0548
952.00,0.0547
951.00,0.0546
950.00,0.0546
949.00,0.0547
948.00,0.0548
947.00,0.0549
946.00,0.0551
945.00,0.0552
944.00,0.0554
943.00,0.0554
942.00,0.0554
941.00,0.0554
940.00,0.0555
939.00,0.0556
938.00,0.0557
937.00,0.0557
936.00,0.0557
935.00,0.0556
934.00,0.0555
933.00,0.0553
932.00,0.0551
931.00,0.0550
930.00,0.0550
929.00,0.0551
928.00,0.0552
927.00,0.0552
926.00,0.0553
925.00,0.0554
924.00,0.0556
923.00,0.0557
922.00,0.0559
921.00,0.0561
920.00,0.0563
919.00,0.0565
918.00,0.0567
917.00,0.0570
916.00,0.0572
915.00,0.0574
914.00,0.0574
913.00,0.0574
912.00,0.0573
911.00,0.0572
910.00,0.0570
909.00,0.0568
908.00,0.0566
907.00,0.0563
906.00,0.0560
905.00,0.0556
904.00,0.0554
903.00,0.0552
902.00,0.0551
901.00,0.0550
900.00,0.0549
899.00,0.0546
898.00,0.0544
897.00,0.0541
896.00,0.0539
895.00,0.0537
894.00,0.0536
893.00,0.0535
892.00,0.0534
891.00,0.0533
890.00,0.0532
889.00,0.0530
888.00,0.0529
887.00,0.0529
886.00,0.0529
885.00,0.0528
884.00,0.0528
883.00,0.0528
882.00,0.0528
881.00,0.0528
880.00,0.0528
879.00,0.0527
878.00,0.0526
877.00,0.0525
876.00,0.0524
875.00,0.0524
874.00,0.0523
873.00,0.0521
872.00,0.0520
871.00,0.0518
870.00,0.0517
869.00,0.0517
868.00,0.0517
867.00,0.0517
866.00,0.0516
865.00,0.0517
864.00,0.0517
863.00,0.0519
862.00,0.0519
861.00,0.0520
860.00,0.0520
859.00,0.0521
858.00,0.0522
857.00,0.0523
856.00,0.0524
855.00,0.0524
854.00,0.0524
853.00,0.0525
852.00,0.0526
851.00,0.0527
850.00,0.0528
849.00,0.0529
848.00,0.0529
847.00,0.0530
846.00,0.0532
845.00,0.0534
844.00,0.0536
843.00,0.0537
842.00,0.0538
841.00,0.0540
840.00,0.0542
839.00,0.0546
838.00,0.0550
837.00,0.0553
836.00,0.0555
835.00,0.0555
834.00,0.0555
833.00,0.0556
832.00,0.0557
831.00,0.0559
830.00,0.0562
829.00,0.0564
828.00,0.0566
827.00,0.0567
826.00,0.0567
825.00,0.0567
824.00,0.0568
823.00,0.0570
822.00,0.0573
821.00,0.0576
820.00,0.0579
819.00,0.0581
818.00,0.0581
817.00,0.0582
816.00,0.0582
815.00,0.0583
814.00,0.0584
813.00,0.0584
812.00,0.0586
811.00,0.0588
810.00,0.0592
809.00,0.0595
808.00,0.0599
807.00,0.0602
806.00,0.0604
805.00,0.0605
804.00,0.0607
803.00,0.0609
802.00,0.0613
801.00,0.0617
800.00,0.0619
799.00,0.0619
798.00,0.0618
797.00,0.0619
796.00,0.0621
795.00,0.0624
794.00,0.0626
793.00,0.0627
792.00,0.0627
791.00,0.0628
790.00,0.0628
789.00,0.0628
788.00,0.0628
787.00,0.0628
786.00,0.0629
785.00,0.0630
784.00,0.0631
783.00,0.0632
782.00,0.0632
781.00,0.0631
780.00,0.0631
779.00,0.0631
778.00,0.0631
777.00,0.0633
776.00,0.0634
775.00,0.0634
774.00,0.0633
773.00,0.0633
772.00,0.0634
771.00,0.0634
770.00,0.0633
769.00,0.0632
768.00,0.0631
767.00,0.0629
766.00,0.0628
765.00,0.0629
764.00,0.0631
763.00,0.0632
762.00,0.0633
761.00,0.0634
760.00,0.0636
759.00,0.0639
758.00,0.0642
757.00,0.0644
756.00,0.0646
755.00,0.0647
754.00,0.0648
753.00,0.0649
752.00,0.0651
751.00,0.0651
750.00,0.0650
749.00,0.0649
748.00,0.0648
747.00,0.0647
746.00,0.0647
745.00,0.0648
744.00,0.0649
743.00,0.0650
742.00,0.0648
741.00,0.0645
740.00,0.0643
739.00,0.0642
738.00,0.0642
737.00,0.0642
736.00,0.0641
735.00,0.0640
734.00,0.0638
733.00,0.0638
732.00,0.0639
731.00,0.0640
730.00,0.0640
729.00,0.0639
728.00,0.0638
727.00,0.0639
726.00,0.0641
725.00,0.0645
724.00,0.0647
723.00,0.0649
722.00,0.0650
721.00,0.0652
720.00,0.0653
719.00,0.0652
718.00,0.0651
717.00,0.0650
716.00,0.0650
715.00,0.0653
714.00,0.0656
713.00,0.0660
712.00,0.0663
711.00,0.0665
710.00,0.0665
709.00,0.0665
708.00,0.0667
707.00,0.0670
706.00,0.0675
705.00,0.0681
704.00,0.0686
703.00,0.0688
702.00,0.0688
701.00,0.0688
700.00,0.0690
699.00,0.0693
698.00,0.0698
697.00,0.0701
696.00,0.0703
695.00,0.0704
694.00,0.0702
693.00,0.0700
692.00,0.0699
691.00,0.0700
690.00,0.0700
689.00,0.0701
688.00,0.0701
687.00,0.0701
686.00,0.0700
685.00,0.0699
684.00,0.0698
683.00,0.0699
682.00,0.0701
681.00,0.0705
680.00,0.0707
679.00,0.0707
678.00,0.0705
677.00,0.0705
676.00,0.0707
675.00,0.0711
674.00,0.0714
673.00,0.0715
672.00,0.0713
671.00,0.0709
670.00,0.0706
669.00,0.0712
668.00,0.0733
667.00,0.0746
666.00,0.0743
665.00,0.0735
664.00,0.0727
663.00,0.0721
662.00,0.0719
661.00,0.0722
660.00,0.0729
659.00,0.0737
658.00,0.0741
657.00,0.0740
656.00,0.0738
655.00,0.0737
654.00,0.0734
653.00,0.0732
652.00,0.0730
651.00,0.0731
650.00,0.0732
