Created as New Dataset,
cm-1,A
4000.00,0.0057
3999.00,0.0057
3998.00,0.0057
3997.00,0.0057
3996.00,0.0057
3995.00,0.0057
3994.00,0.0057
3993.00,0.0057
3992.00,0.0057
3991.00,0.0056
3990.00,0.0056
3989.00,0.0055
3988.00,0.0055
3987.00,0.0055
3986.00,0.0055
3985.00,0.0055
3984.00,0.0055
3983.00,0.0056
3982.00,0.0056
3981.00,0.0056
3980.00,0.0056
3979.00,0.0056
3978.00,0.0056
3977.00,0.0056
3976.00,0.0055
3975.00,0.0055
3974.00,0.0055
3973.00,0.0055
3972.00,0.0055
3971.00,0.0055
3970.00,0.0055
3969.00,0.0054
3968.00,0.0054
3967.00,0.0054
3966.00,0.0054
3965.00,0.0054
3964.00,0.0054
3963.00,0.0054
3962.00,0.0054
3961.00,0.0055
3960.00,0.0055
3959.00,0.0055
3958.00,0.0055
3957.00,0.0055
3956.00,0.0055
3955.00,0.0054
3954.00,0.0054
3953.00,0.0054
3952.00,0.0053
3951.00,0.0053
3950.00,0.0053
3949.00,0.0053
3948.00,0.0052
3947.00,0.0052
3946.00,0.0051
3945.00,0.0051
3944.00,0.0052
3943.00,0.0052
3942.00,0.0053
3941.00,0.0053
3940.00,0.0053
3939.00,0.0053
3938.00,0.0053
3937.00,0.0053
3936.00,0.0052
3935.00,0.0051
3934.00,0.0051
3933.00,0.0051
3932.00,0.0052
3931.00,0.0052
3930.00,0.0051
3929.00,0.0051
3928.00,0.0051
3927.00,0.0050
3926.00,0.0050
3925.00,0.0050
3924.00,0.0050
3923.00,0.0050
3922.00,0.0050
3921.00,0.0050
3920.00,0.0050
3919.00,0.0050
3918.00,0.0051
3917.00,0.0051
3916.00,0.0051
3915.00,0.0051
3914.00,0.0051
3913.00,0.0052
3912.00,0.0053
3911.00,0.0053
3910.00,0.0052
3909.00,0.0051
3908.00,0.0049
3907.00,0.0047
3906.00,0.0046
3905.00,0.0044
3904.00,0.0043
3903.00,0.0042
3902.00,0.0042
3901.00,0.0043
3900.00,0.0045
3899.00,0.0046
3898.00,0.0047
3897.00,0.0047
3896.00,0.0048
3895.00,0.0048
3894.00,0.0048
3893.00,0.0049
3892.00,0.0049
3891.00,0.0048
3890.00,0.0047
3889.00,0.0046
3888.00,0.0046
3887.00,0.0047
3886.00,0.0047
3885.00,0.0047
3884.00,0.0046
3883.00,0.0045
3882.00,0.0046
3881.00,0.0047
3880.00,0.0046
3879.00,0.0046
3878.00,0.0046
3877.00,0.0047
3876.00,0.0048
3875.00,0.0047
3874.00,0.0045
3873.00,0.0043
3872.00,0.0042
3871.00,0.0043
3870.00,0.0043
3869.00,0.0042
3868.00,0.0041
3867.00,0.0042
3866.00,0.0043
3865.00,0.0044
3864.00,0.0044
3863.00,0.0044
3862.00,0.0045
3861.00,0.0045
3860.00,0.0046
3859.00,0.0045
3858.00,0.0044
3857.00,0.0041
3856.00,0.0038
3855.00,0.0036
3854.00,0.0038
3853.00,0.0038
3852.00,0.0035
3851.00,0.0034
3850.00,0.0038
3849.00,0.0042
3848.00,0.0045
3847.00,0.0046
3846.00,0.0046
3845.00,0.0045
3844.00,0.0044
3843.00,0.0042
3842.00,0.0041
3841.00,0.0039
3840.00,0.0039
3839.00,0.0039
3838.00,0.0039
3837.00,0.0039
3836.00,0.0038
3835.00,0.0039
3834.00,0.0041
3833.00,0.0043
3832.00,0.0044
3831.00,0.0045
3830.00,0.0045
3829.00,0.0046
3828.00,0.0046
3827.00,0.0046
3826.00,0.0045
3825.00,0.0042
3824.00,0.0040
3823.00,0.0040
3822.00,0.0040
3821.00,0.0040
3820.00,0.0038
3819.00,0.0037
3818.00,0.0038
3817.00,0.0041
3816.00,0.0042
3815.00,0.0043
3814.00,0.0043
3813.00,0.0044
3812.00,0.0046
3811.00,0.0046
3810.00,0.0045
3809.00,0.0044
3808.00,0.0044
3807.00,0.0043
3806.00,0.0040
3805.00,0.0038
3804.00,0.0038
3803.00,0.0039
3802.00,0.0040
3801.00,0.0040
3800.00,0.0038
3799.00,0.0038
3798.00,0.0040
3797.00,0.0042
3796.00,0.0043
3795.00,0.0044
3794.00,0.0046
3793.00,0.0047
3792.00,0.0048
3791.00,0.0048
3790.00,0.0048
3789.00,0.0047
3788.00,0.0047
3787.00,0.0046
3786.00,0.0046
3785.00,0.0046
3784.00,0.0045
3783.00,0.0044
3782.00,0.0044
3781.00,0.0044
3780.00,0.0044
3779.00,0.0044
3778.00,0.0044
3777.00,0.0045
3776.00,0.0046
3775.00,0.0046
3774.00,0.0045
3773.00,0.0044
3772.00,0.0043
3771.00,0.0042
3770.00,0.0042
3769.00,0.0042
3768.00,0.0041
3767.00,0.0042
3766.00,0.0043
3765.00,0.0043
3764.00,0.0043
3763.00,0.0043
3762.00,0.0043
3761.00,0.0043
3760.00,0.0043
3759.00,0.0042
3758.00,0.0041
3757.00,0.0040
3756.00,0.0039
3755.00,0.0038
3754.00,0.0036
3753.00,0.0034
3752.00,0.0034
3751.00,0.0034
3750.00,0.0033
3749.00,0.0032
3748.00,0.0030
3747.00,0.0030
3746.00,0.0031
3745.00,0.0033
3744.00,0.0033
3743.00,0.0032
3742.00,0.0032
3741.00,0.0034
3740.00,0.0036
3739.00,0.0035
3738.00,0.0034
3737.00,0.0033
3736.00,0.0032
3735.00,0.0032
3734.00,0.0032
3733.00,0.0033
3732.00,0.0034
3731.00,0.0035
3730.00,0.0037
3729.00,0.0038
3728.00,0.0039
3727.00,0.0039
3726.00,0.0039
3725.00,0.0039
3724.00,0.0038
3723.00,0.0039
3722.00,0.0039
3721.00,0.0039
3720.00,0.0040
3719.00,0.0041
3718.00,0.0042
3717.00,0.0041
3716.00,0.0040
3715.00,0.0038
3714.00,0.0037
3713.00,0.0036
3712.00,0.0037
3711.00,0.0037
3710.00,0.0038
3709.00,0.0038
3708.00,0.0039
3707.00,0.0041
3706.00,0.0042
3705.00,0.0043
3704.00,0.0043
3703.00,0.0044
3702.00,0.0044
3701.00,0.0044
3700.00,0.0043
3699.00,0.0043
3698.00,0.0044
3697.00,0.0045
3696.00,0.0045
3695.00,0.0044
3694.00,0.0043
3693.00,0.0042
3692.00,0.0040
3691.00,0.0040
3690.00,0.0040
3689.00,0.0041
3688.00,0.0040
3687.00,0.0040
3686.00,0.0042
3685.00,0.0044
3684.00,0.0046
3683.00,0.0047
3682.00,0.0047
3681.00,0.0045
3680.00,0.0043
3679.00,0.0040
3678.00,0.0037
3677.00,0.0037
3676.00,0.0039
3675.00,0.0039
3674.00,0.0036
3673.00,0.0036
3672.00,0.0038
3671.00,0.0041
3670.00,0.0043
3669.00,0.0044
3668.00,0.0046
3667.00,0.0048
3666.00,0.0050
3665.00,0.0053
3664.00,0.0054
3663.00,0.0055
3662.00,0.0055
3661.00,0.0055
3660.00,0.0054
3659.00,0.0054
3658.00,0.0055
3657.00,0.0056
3656.00,0.0056
3655.00,0.0055
3654.00,0.0054
3653.00,0.0052
3652.00,0.0049
3651.00,0.0047
3650.00,0.0047
3649.00,0.0050
3648.00,0.0051
3647.00,0.0053
3646.00,0.0055
3645.00,0.0058
3644.00,0.0061
3643.00,0.0064
3642.00,0.0065
3641.00,0.0066
3640.00,0.0066
3639.00,0.0067
3638.00,0.0068
3637.00,0.0068
3636.00,0.0069
3635.00,0.0068
3634.00,0.0067
3633.00,0.0065
3632.00,0.0063
3631.00,0.0062
3630.00,0.0064
3629.00,0.0067
3628.00,0.0068
3627.00,0.0067
3626.00,0.0069
3625.00,0.0071
3624.00,0.0073
3623.00,0.0074
3622.00,0.0073
3621.00,0.0074
3620.00,0.0075
3619.00,0.0075
3618.00,0.0075
3617.00,0.0074
3616.00,0.0073
3615.00,0.0073
3614.00,0.0074
3613.00,0.0074
3612.00,0.0075
3611.00,0.0076
3610.00,0.0078
3609.00,0.0079
3608.00,0.0080
3607.00,0.0081
3606.00,0.0081
3605.00,0.0081
3604.00,0.0082
3603.00,0.0082
3602.00,0.0083
3601.00,0.0083
3600.00,0.0083
3599.00,0.0083
3598.00,0.0083
3597.00,0.0083
3596.00,0.0084
3595.00,0.0085
3594.00,0.0086
3593.00,0.0086
3592.00,0.0086
3591.00,0.0085
3590.00,0.0084
3589.00,0.0085
3588.00,0.0086
3587.00,0.0087
3586.00,0.0088
3585.00,0.0090
3584.00,0.0091
3583.00,0.0093
3582.00,0.0094
3581.00,0.0094
3580.00,0.0095
3579.00,0.0096
3578.00,0.0096
3577.00,0.0096
3576.00,0.0096
3575.00,0.0096
3574.00,0.0096
3573.00,0.0096
3572.00,0.0095
3571.00,0.0093
3570.00,0.0091
3569.00,0.0090
3568.00,0.0090
3567.00,0.0092
3566.00,0.0093
3565.00,0.0095
3564.00,0.0097
3563.00,0.0099
3562.00,0.0101
3561.00,0.0102
3560.00,0.0102
3559.00,0.0103
3558.00,0.0102
3557.00,0.0102
3556.00,0.0101
3555.00,0.0101
3554.00,0.0101
3553.00,0.0102
3552.00,0.0103
3551.00,0.0104
3550.00,0.0104
3549.00,0.0104
3548.00,0.0104
3547.00,0.0105
3546.00,0.0105
3545.00,0.0105
3544.00,0.0106
3543.00,0.0106
3542.00,0.0107
3541.00,0.0107
3540.00,0.0108
3539.00,0.0109
3538.00,0.0109
3537.00,0.0110
3536.00,0.0110
3535.00,0.0110
3534.00,0.0110
3533.00,0.0109
3532.00,0.0109
3531.00,0.0109
3530.00,0.0109
3529.00,0.0109
3528.00,0.0110
3527.00,0.0110
3526.00,0.0110
3525.00,0.0111
3524.00,0.0111
3523.00,0.0112
3522.00,0.0113
3521.00,0.0113
3520.00,0.0114
3519.00,0.0114
3518.00,0.0115
3517.00,0.0116
3516.00,0.0116
3515.00,0.0117
3514.00,0.0116
3513.00,0.0116
3512.00,0.0117
3511.00,0.0117
3510.00,0.0118
3509.00,0.0118
3508.00,0.0119
3507.00,0.0119
3506.00,0.0119
3505.00,0.0119
3504.00,0.0119
3503.00,0.0119
3502.00,0.0120
3501.00,0.0120
3500.00,0.0120
3499.00,0.0120
3498.00,0.0120
3497.00,0.0120
3496.00,0.0120
3495.00,0.0120
3494.00,0.0121
3493.00,0.0122
3492.00,0.0123
3491.00,0.0123
3490.00,0.0122
3489.00,0.0122
3488.00,0.0122
3487.00,0.0123
3486.00,0.0123
3485.00,0.0124
3484.00,0.0124
3483.00,0.0125
3482.00,0.0125
3481.00,0.0126
3480.00,0.0127
3479.00,0.0127
3478.00,0.0128
3477.00,0.0128
3476.00,0.0128
3475.00,0.0127
3474.00,0.0127
3473.00,0.0127
3472.00,0.0127
3471.00,0.0128
3470.00,0.0128
3469.00,0.0129
3468.00,0.0129
3467.00,0.0129
3466.00,0.0130
3465.00,0.0130
3464.00,0.0130
3463.00,0.0131
3462.00,0.0131
3461.00,0.0131
3460.00,0.0131
3459.00,0.0130
3458.00,0.0130
3457.00,0.0130
3456.00,0.0131
3455.00,0.0131
3454.00,0.0132
3453.00,0.0133
3452.00,0.0133
3451.00,0.0133
3450.00,0.0133
3449.00,0.0132
3448.00,0.0132
3447.00,0.0132
3446.00,0.0132
3445.00,0.0132
3444.00,0.0133
3443.00,0.0133
3442.00,0.0133
3441.00,0.0133
3440.00,0.0133
3439.00,0.0134
3438.00,0.0134
3437.00,0.0134
3436.00,0.0134
3435.00,0.0134
3434.00,0.0134
3433.00,0.0135
3432.00,0.0135
3431.00,0.0135
3430.00,0.0136
3429.00,0.0136
3428.00,0.0136
3427.00,0.0136
3426.00,0.0136
3425.00,0.0137
3424.00,0.0137
3423.00,0.0136
3422.00,0.0136
3421.00,0.0137
3420.00,0.0137
3419.00,0.0138
3418.00,0.0138
3417.00,0.0138
3416.00,0.0138
3415.00,0.0138
3414.00,0.0138
3413.00,0.0138
3412.00,0.0138
3411.00,0.0139
3410.00,0.0139
3409.00,0.0139
3408.00,0.0139
3407.00,0.0140
3406.00,0.0140
3405.00,0.0140
3404.00,0.0140
3403.00,0.0141
3402.00,0.0141
3401.00,0.0141
3400.00,0.0140
3399.00,0.0140
3398.00,0.0140
3397.00,0.0140
3396.00,0.0140
3395.00,0.0140
3394.00,0.0140
3393.00,0.0141
3392.00,0.0141
3391.00,0.0141
3390.00,0.0141
3389.00,0.0140
3388.00,0.0140
3387.00,0.0140
3386.00,0.0141
3385.00,0.0141
3384.00,0.0142
3383.00,0.0142
3382.00,0.0142
3381.00,0.0141
3380.00,0.0141
3379.00,0.0141
3378.00,0.0141
3377.00,0.0141
3376.00,0.0141
3375.00,0.0141
3374.00,0.0142
3373.00,0.0142
3372.00,0.0142
3371.00,0.0142
3370.00,0.0142
3369.00,0.0142
3368.00,0.0142
3367.00,0.0142
3366.00,0.0142
3365.00,0.0143
3364.00,0.0143
3363.00,0.0143
3362.00,0.0143
3361.00,0.0143
3360.00,0.0143
3359.00,0.0143
3358.00,0.0143
3357.00,0.0143
3356.00,0.0143
3355.00,0.0143
3354.00,0.0142
3353.00,0.0142
3352.00,0.0142
3351.00,0.0142
3350.00,0.0142
3349.00,0.0142
3348.00,0.0142
3347.00,0.0142
3346.00,0.0142
3345.00,0.0142
3344.00,0.0142
3343.00,0.0142
3342.00,0.0142
3341.00,0.0141
3340.00,0.0141
3339.00,0.0141
3338.00,0.0142
3337.00,0.0142
3336.00,0.0143
3335.00,0.0143
3334.00,0.0143
3333.00,0.0143
3332.00,0.0143
3331.00,0.0143
3330.00,0.0143
3329.00,0.0142
3328.00,0.0142
3327.00,0.0142
3326.00,0.0142
3325.00,0.0142
3324.00,0.0143
3323.00,0.0144
3322.00,0.0144
3321.00,0.0143
3320.00,0.0143
3319.00,0.0142
3318.00,0.0142
3317.00,0.0142
3316.00,0.0142
3315.00,0.0142
3314.00,0.0142
3313.00,0.0142
3312.00,0.0142
3311.00,0.0142
3310.00,0.0142
3309.00,0.0142
3308.00,0.0142
3307.00,0.0142
3306.00,0.0142
3305.00,0.0143
3304.00,0.0143
3303.00,0.0143
3302.00,0.0143
3301.00,0.0143
3300.00,0.0142
3299.00,0.0142
3298.00,0.0143
3297.00,0.0143
3296.00,0.0143
3295.00,0.0142
3294.00,0.0142
3293.00,0.0142
3292.00,0.0142
3291.00,0.0142
3290.00,0.0142
3289.00,0.0142
3288.00,0.0142
3287.00,0.0143
3286.00,0.0143
3285.00,0.0144
3284.00,0.0143
3283.00,0.0143
3282.00,0.0142
3281.00,0.0142
3280.00,0.0142
3279.00,0.0142
3278.00,0.0142
3277.00,0.0142
3276.00,0.0142
3275.00,0.0142
3274.00,0.0142
3273.00,0.0143
3272.00,0.0143
3271.00,0.0143
3270.00,0.0143
3269.00,0.0142
3268.00,0.0142
3267.00,0.0142
3266.00,0.0142
3265.00,0.0142
3264.00,0.0142
3263.00,0.0142
3262.00,0.0142
3261.00,0.0142
3260.00,0.0142
3259.00,0.0143
3258.00,0.0143
3257.00,0.0142
3256.00,0.0142
3255.00,0.0142
3254.00,0.0141
3253.00,0.0141
3252.00,0.0141
3251.00,0.0141
3250.00,0.0142
3249.00,0.0142
3248.00,0.0142
3247.00,0.0143
3246.00,0.0143
3245.00,0.0143
3244.00,0.0143
3243.00,0.0143
3242.00,0.0143
3241.00,0.0143
3240.00,0.0143
3239.00,0.0143
3238.00,0.0143
3237.00,0.0143
3236.00,0.0143
3235.00,0.0143
3234.00,0.0143
3233.00,0.0143
3232.00,0.0143
3231.00,0.0144
3230.00,0.0144
3229.00,0.0144
3228.00,0.0144
3227.00,0.0144
3226.00,0.0144
3225.00,0.0144
3224.00,0.0143
3223.00,0.0143
3222.00,0.0144
3221.00,0.0144
3220.00,0.0144
3219.00,0.0143
3218.00,0.0143
3217.00,0.0142
3216.00,0.0142
3215.00,0.0142
3214.00,0.0142
3213.00,0.0143
3212.00,0.0144
3211.00,0.0144
3210.00,0.0144
3209.00,0.0143
3208.00,0.0143
3207.00,0.0142
3206.00,0.0142
3205.00,0.0143
3204.00,0.0143
3203.00,0.0143
3202.00,0.0144
3201.00,0.0144
3200.00,0.0144
3199.00,0.0144
3198.00,0.0144
3197.00,0.0143
3196.00,0.0143
3195.00,0.0143
3194.00,0.0143
3193.00,0.0143
3192.00,0.0143
3191.00,0.0143
3190.00,0.0143
3189.00,0.0143
3188.00,0.0143
3187.00,0.0143
3186.00,0.0143
3185.00,0.0143
3184.00,0.0143
3183.00,0.0143
3182.00,0.0143
3181.00,0.0143
3180.00,0.0143
3179.00,0.0142
3178.00,0.0142
3177.00,0.0142
3176.00,0.0142
3175.00,0.0142
3174.00,0.0142
3173.00,0.0142
3172.00,0.0142
3171.00,0.0142
3170.00,0.0142
3169.00,0.0142
3168.00,0.0141
3167.00,0.0141
3166.00,0.0141
3165.00,0.0142
3164.00,0.0142
3163.00,0.0141
3162.00,0.0141
3161.00,0.0140
3160.00,0.0141
3159.00,0.0141
3158.00,0.0141
3157.00,0.0141
3156.00,0.0141
3155.00,0.0140
3154.00,0.0140
3153.00,0.0140
3152.00,0.0140
3151.00,0.0140
3150.00,0.0139
3149.00,0.0139
3148.00,0.0139
3147.00,0.0140
3146.00,0.0140
3145.00,0.0140
3144.00,0.0141
3143.00,0.0140
3142.00,0.0140
3141.00,0.0140
3140.00,0.0140
3139.00,0.0140
3138.00,0.0140
3137.00,0.0140
3136.00,0.0140
3135.00,0.0140
3134.00,0.0140
3133.00,0.0139
3132.00,0.0139
3131.00,0.0139
3130.00,0.0139
3129.00,0.0139
3128.00,0.0139
3127.00,0.0139
3126.00,0.0139
3125.00,0.0139
3124.00,0.0139
3123.00,0.0138
3122.00,0.0138
3121.00,0.0139
3120.00,0.0139
3119.00,0.0139
3118.00,0.0139
3117.00,0.0139
3116.00,0.0139
3115.00,0.0139
3114.00,0.0139
3113.00,0.0139
3112.00,0.0139
3111.00,0.0138
3110.00,0.0138
3109.00,0.0137
3108.00,0.0137
3107.00,0.0137
3106.00,0.0137
3105.00,0.0138
3104.00,0.0138
3103.00,0.0137
3102.00,0.0137
3101.00,0.0137
3100.00,0.0137
3099.00,0.0137
3098.00,0.0138
3097.00,0.0138
3096.00,0.0138
3095.00,0.0138
3094.00,0.0137
3093.00,0.0137
3092.00,0.0137
3091.00,0.0137
3090.00,0.0137
3089.00,0.0137
3088.00,0.0137
3087.00,0.0137
3086.00,0.0137
3085.00,0.0137
3084.00,0.0137
3083.00,0.0137
3082.00,0.0137
3081.00,0.0137
3080.00,0.0137
3079.00,0.0137
3078.00,0.0137
3077.00,0.0136
3076.00,0.0136
3075.00,0.0136
3074.00,0.0136
3073.00,0.0136
3072.00,0.0137
3071.00,0.0137
3070.00,0.0137
3069.00,0.0137
3068.00,0.0136
3067.00,0.0136
3066.00,0.0136
3065.00,0.0136
3064.00,0.0136
3063.00,0.0136
3062.00,0.0136
3061.00,0.0136
3060.00,0.0136
3059.00,0.0136
3058.00,0.0136
3057.00,0.0136
3056.00,0.0136
3055.00,0.0135
3054.00,0.0135
3053.00,0.0135
3052.00,0.0135
3051.00,0.0135
3050.00,0.0135
3049.00,0.0134
3048.00,0.0134
3047.00,0.0133
3046.00,0.0133
3045.00,0.0134
3044.00,0.0134
3043.00,0.0134
3042.00,0.0134
3041.00,0.0133
3040.00,0.0133
3039.00,0.0133
3038.00,0.0133
3037.00,0.0134
3036.00,0.0134
3035.00,0.0134
3034.00,0.0134
3033.00,0.0133
3032.00,0.0133
3031.00,0.0133
3030.00,0.0132
3029.00,0.0132
3028.00,0.0132
3027.00,0.0131
3026.00,0.0131
3025.00,0.0132
3024.00,0.0132
3023.00,0.0132
3022.00,0.0132
3021.00,0.0132
3020.00,0.0132
3019.00,0.0131
3018.00,0.0131
3017.00,0.0131
3016.00,0.0131
3015.00,0.0132
3014.00,0.0132
3013.00,0.0132
3012.00,0.0132
3011.00,0.0132
3010.00,0.0132
3009.00,0.0132
3008.00,0.0132
3007.00,0.0132
3006.00,0.0133
3005.00,0.0133
3004.00,0.0134
3003.00,0.0134
3002.00,0.0134
3001.00,0.0134
3000.00,0.0134
2999.00,0.0134
2998.00,0.0134
2997.00,0.0133
2996.00,0.0133
2995.00,0.0134
2994.00,0.0134
2993.00,0.0134
2992.00,0.0134
2991.00,0.0134
2990.00,0.0133
2989.00,0.0133
2988.00,0.0134
2987.00,0.0134
2986.00,0.0135
2985.00,0.0135
2984.00,0.0136
2983.00,0.0137
2982.00,0.0137
2981.00,0.0136
2980.00,0.0136
2979.00,0.0135
2978.00,0.0135
2977.00,0.0135
2976.00,0.0135
2975.00,0.0134
2974.00,0.0134
2973.00,0.0134
2972.00,0.0133
2971.00,0.0133
2970.00,0.0132
2969.00,0.0131
2968.00,0.0130
2967.00,0.0130
2966.00,0.0129
2965.00,0.0129
2964.00,0.0128
2963.00,0.0128
2962.00,0.0128
2961.00,0.0127
2960.00,0.0127
2959.00,0.0127
2958.00,0.0126
2957.00,0.0126
2956.00,0.0126
2955.00,0.0125
2954.00,0.0125
2953.00,0.0126
2952.00,0.0126
2951.00,0.0126
2950.00,0.0126
2949.00,0.0125
2948.00,0.0125
2947.00,0.0125
2946.00,0.0125
2945.00,0.0125
2944.00,0.0125
2943.00,0.0125
2942.00,0.0124
2941.00,0.0124
2940.00,0.0123
2939.00,0.0123
2938.00,0.0122
2937.00,0.0121
2936.00,0.0120
2935.00,0.0120
2934.00,0.0119
2933.00,0.0118
2932.00,0.0118
2931.00,0.0117
2930.00,0.0116
2929.00,0.0116
2928.00,0.0115
2927.00,0.0114
2926.00,0.0114
2925.00,0.0113
2924.00,0.0113
2923.00,0.0112
2922.00,0.0112
2921.00,0.0113
2920.00,0.0113
2919.00,0.0113
2918.00,0.0113
2917.00,0.0113
2916.00,0.0113
2915.00,0.0114
2914.00,0.0116
2913.00,0.0116
2912.00,0.0117
2911.00,0.0117
2910.00,0.0118
2909.00,0.0118
2908.00,0.0118
2907.00,0.0119
2906.00,0.0119
2905.00,0.0119
2904.00,0.0120
2903.00,0.0120
2902.00,0.0120
2901.00,0.0120
2900.00,0.0120
2899.00,0.0119
2898.00,0.0119
2897.00,0.0118
2896.00,0.0118
2895.00,0.0118
2894.00,0.0119
2893.00,0.0120
2892.00,0.0120
2891.00,0.0120
2890.00,0.0120
2889.00,0.0120
2888.00,0.0120
2887.00,0.0120
2886.00,0.0120
2885.00,0.0120
2884.00,0.0120
2883.00,0.0121
2882.00,0.0121
2881.00,0.0121
2880.00,0.0121
2879.00,0.0120
2878.00,0.0120
2877.00,0.0119
2876.00,0.0119
2875.00,0.0118
2874.00,0.0117
2873.00,0.0116
2872.00,0.0116
2871.00,0.0115
2870.00,0.0115
2869.00,0.0115
2868.00,0.0115
2867.00,0.0115
2866.00,0.0114
2865.00,0.0114
2864.00,0.0113
2863.00,0.0113
2862.00,0.0113
2861.00,0.0113
2860.00,0.0112
2859.00,0.0112
2858.00,0.0112
2857.00,0.0111
2856.00,0.0110
2855.00,0.0110
2854.00,0.0109
2853.00,0.0109
2852.00,0.0109
2851.00,0.0109
2850.00,0.0109
2849.00,0.0109
2848.00,0.0110
2847.00,0.0110
2846.00,0.0110
2845.00,0.0111
2844.00,0.0112
2843.00,0.0112
2842.00,0.0113
2841.00,0.0113
2840.00,0.0113
2839.00,0.0114
2838.00,0.0114
2837.00,0.0114
2836.00,0.0114
2835.00,0.0113
2834.00,0.0113
2833.00,0.0113
2832.00,0.0113
2831.00,0.0113
2830.00,0.0113
2829.00,0.0113
2828.00,0.0113
2827.00,0.0113
2826.00,0.0113
2825.00,0.0112
2824.00,0.0112
2823.00,0.0112
2822.00,0.0112
2821.00,0.0112
2820.00,0.0112
2819.00,0.0112
2818.00,0.0112
2817.00,0.0111
2816.00,0.0111
2815.00,0.0110
2814.00,0.0110
2813.00,0.0110
2812.00,0.0110
2811.00,0.0110
2810.00,0.0111
2809.00,0.0111
2808.00,0.0111
2807.00,0.0110
2806.00,0.0110
2805.00,0.0110
2804.00,0.0110
2803.00,0.0109
2802.00,0.0109
2801.00,0.0109
2800.00,0.0109
2799.00,0.0109
2798.00,0.0109
2797.00,0.0109
2796.00,0.0109
2795.00,0.0108
2794.00,0.0108
2793.00,0.0108
2792.00,0.0108
2791.00,0.0108
2790.00,0.0108
2789.00,0.0108
2788.00,0.0108
2787.00,0.0107
2786.00,0.0107
2785.00,0.0108
2784.00,0.0108
2783.00,0.0107
2782.00,0.0107
2781.00,0.0107
2780.00,0.0106
2779.00,0.0105
2778.00,0.0105
2777.00,0.0106
2776.00,0.0106
2775.00,0.0107
2774.00,0.0107
2773.00,0.0107
2772.00,0.0106
2771.00,0.0105
2770.00,0.0105
2769.00,0.0105
2768.00,0.0104
2767.00,0.0104
2766.00,0.0104
2765.00,0.0104
2764.00,0.0105
2763.00,0.0105
2762.00,0.0105
2761.00,0.0105
2760.00,0.0105
2759.00,0.0104
2758.00,0.0104
2757.00,0.0104
2756.00,0.0103
2755.00,0.0103
2754.00,0.0103
2753.00,0.0103
2752.00,0.0103
2751.00,0.0103
2750.00,0.0103
2749.00,0.0104
2748.00,0.0104
2747.00,0.0104
2746.00,0.0103
2745.00,0.0103
2744.00,0.0102
2743.00,0.0101
2742.00,0.0101
2741.00,0.0102
2740.00,0.0102
2739.00,0.0102
2738.00,0.0102
2737.00,0.0102
2736.00,0.0101
2735.00,0.0101
2734.00,0.0101
2733.00,0.0101
2732.00,0.0100
2731.00,0.0100
2730.00,0.0100
2729.00,0.0100
2728.00,0.0100
2727.00,0.0100
2726.00,0.0100
2725.00,0.0100
2724.00,0.0100
2723.00,0.0100
2722.00,0.0100
2721.00,0.0100
2720.00,0.0100
2719.00,0.0100
2718.00,0.0099
2717.00,0.0099
2716.00,0.0099
2715.00,0.0099
2714.00,0.0099
2713.00,0.0099
2712.00,0.0099
2711.00,0.0099
2710.00,0.0099
2709.00,0.0099
2708.00,0.0098
2707.00,0.0098
2706.00,0.0098
2705.00,0.0098
2704.00,0.0098
2703.00,0.0098
2702.00,0.0098
2701.00,0.0098
2700.00,0.0098
2699.00,0.0098
2698.00,0.0097
2697.00,0.0097
2696.00,0.0097
2695.00,0.0097
2694.00,0.0097
2693.00,0.0097
2692.00,0.0097
2691.00,0.0096
2690.00,0.0096
2689.00,0.0096
2688.00,0.0096
2687.00,0.0096
2686.00,0.0096
2685.00,0.0096
2684.00,0.0096
2683.00,0.0095
2682.00,0.0095
2681.00,0.0095
2680.00,0.0095
2679.00,0.0096
2678.00,0.0096
2677.00,0.0096
2676.00,0.0096
2675.00,0.0096
2674.00,0.0095
2673.00,0.0095
2672.00,0.0095
2671.00,0.0094
2670.00,0.0094
2669.00,0.0094
2668.00,0.0094
2667.00,0.0094
2666.00,0.0095
2665.00,0.0095
2664.00,0.0095
2663.00,0.0095
2662.00,0.0095
2661.00,0.0095
2660.00,0.0095
2659.00,0.0094
2658.00,0.0094
2657.00,0.0094
2656.00,0.0094
2655.00,0.0094
2654.00,0.0095
2653.00,0.0095
2652.00,0.0095
2651.00,0.0095
2650.00,0.0095
2649.00,0.0095
2648.00,0.0095
2647.00,0.0095
2646.00,0.0095
2645.00,0.0095
2644.00,0.0095
2643.00,0.0095
2642.00,0.0096
2641.00,0.0096
2640.00,0.0095
2639.00,0.0095
2638.00,0.0095
2637.00,0.0094
2636.00,0.0094
2635.00,0.0094
2634.00,0.0094
2633.00,0.0094
2632.00,0.0094
2631.00,0.0094
2630.00,0.0094
2629.00,0.0094
2628.00,0.0094
2627.00,0.0094
2626.00,0.0094
2625.00,0.0094
2624.00,0.0094
2623.00,0.0093
2622.00,0.0093
2621.00,0.0093
2620.00,0.0093
2619.00,0.0093
2618.00,0.0093
2617.00,0.0094
2616.00,0.0094
2615.00,0.0094
2614.00,0.0094
2613.00,0.0095
2612.00,0.0094
2611.00,0.0094
2610.00,0.0093
2609.00,0.0093
2608.00,0.0092
2607.00,0.0092
2606.00,0.0093
2605.00,0.0093
2604.00,0.0094
2603.00,0.0094
2602.00,0.0094
2601.00,0.0093
2600.00,0.0093
2599.00,0.0093
2598.00,0.0093
2597.00,0.0093
2596.00,0.0093
2595.00,0.0092
2594.00,0.0093
2593.00,0.0093
2592.00,0.0093
2591.00,0.0093
2590.00,0.0093
2589.00,0.0092
2588.00,0.0092
2587.00,0.0091
2586.00,0.0091
2585.00,0.0091
2584.00,0.0091
2583.00,0.0092
2582.00,0.0092
2581.00,0.0092
2580.00,0.0092
2579.00,0.0092
2578.00,0.0092
2577.00,0.0093
2576.00,0.0093
2575.00,0.0093
2574.00,0.0092
2573.00,0.0091
2572.00,0.0091
2571.00,0.0090
2570.00,0.0090
2569.00,0.0091
2568.00,0.0091
2567.00,0.0092
2566.00,0.0092
2565.00,0.0092
2564.00,0.0092
2563.00,0.0092
2562.00,0.0092
2561.00,0.0092
2560.00,0.0091
2559.00,0.0091
2558.00,0.0091
2557.00,0.0092
2556.00,0.0092
2555.00,0.0093
2554.00,0.0093
2553.00,0.0092
2552.00,0.0092
2551.00,0.0092
2550.00,0.0091
2549.00,0.0091
2548.00,0.0091
2547.00,0.0091
2546.00,0.0091
2545.00,0.0090
2544.00,0.0090
2543.00,0.0091
2542.00,0.0092
2541.00,0.0092
2540.00,0.0093
2539.00,0.0093
2538.00,0.0092
2537.00,0.0092
2536.00,0.0092
2535.00,0.0092
2534.00,0.0092
2533.00,0.0092
2532.00,0.0092
2531.00,0.0091
2530.00,0.0092
2529.00,0.0092
2528.00,0.0092
2527.00,0.0093
2526.00,0.0093
2525.00,0.0093
2524.00,0.0092
2523.00,0.0092
2522.00,0.0091
2521.00,0.0091
2520.00,0.0091
2519.00,0.0091
2518.00,0.0090
2517.00,0.0090
2516.00,0.0089
2515.00,0.0089
2514.00,0.0090
2513.00,0.0091
2512.00,0.0092
2511.00,0.0092
2510.00,0.0091
2509.00,0.0091
2508.00,0.0090
2507.00,0.0089
2506.00,0.0089
2505.00,0.0089
2504.00,0.0090
2503.00,0.0090
2502.00,0.0090
2501.00,0.0090
2500.00,0.0090
2499.00,0.0090
2498.00,0.0090
2497.00,0.0090
2496.00,0.0089
2495.00,0.0089
2494.00,0.0088
2493.00,0.0088
2492.00,0.0089
2491.00,0.0089
2490.00,0.0089
2489.00,0.0089
2488.00,0.0089
2487.00,0.0089
2486.00,0.0089
2485.00,0.0089
2484.00,0.0089
2483.00,0.0089
2482.00,0.0089
2481.00,0.0089
2480.00,0.0090
2479.00,0.0090
2478.00,0.0089
2477.00,0.0089
2476.00,0.0089
2475.00,0.0088
2474.00,0.0088
2473.00,0.0088
2472.00,0.0088
2471.00,0.0088
2470.00,0.0088
2469.00,0.0088
2468.00,0.0088
2467.00,0.0088
2466.00,0.0087
2465.00,0.0088
2464.00,0.0088
2463.00,0.0088
2462.00,0.0088
2461.00,0.0088
2460.00,0.0088
2459.00,0.0088
2458.00,0.0088
2457.00,0.0088
2456.00,0.0087
2455.00,0.0087
2454.00,0.0087
2453.00,0.0087
2452.00,0.0087
2451.00,0.0088
2450.00,0.0087
2449.00,0.0087
2448.00,0.0087
2447.00,0.0086
2446.00,0.0085
2445.00,0.0085
2444.00,0.0085
2443.00,0.0086
2442.00,0.0086
2441.00,0.0086
2440.00,0.0086
2439.00,0.0086
2438.00,0.0086
2437.00,0.0086
2436.00,0.0086
2435.00,0.0086
2434.00,0.0085
2433.00,0.0085
2432.00,0.0085
2431.00,0.0085
2430.00,0.0085
2429.00,0.0085
2428.00,0.0085
2427.00,0.0085
2426.00,0.0085
2425.00,0.0085
2424.00,0.0085
2423.00,0.0085
2422.00,0.0084
2421.00,0.0084
2420.00,0.0084
2419.00,0.0084
2418.00,0.0083
2417.00,0.0083
2416.00,0.0084
2415.00,0.0084
2414.00,0.0084
2413.00,0.0084
2412.00,0.0084
2411.00,0.0084
2410.00,0.0084
2409.00,0.0084
2408.00,0.0083
2407.00,0.0083
2406.00,0.0084
2405.00,0.0084
2404.00,0.0085
2403.00,0.0085
2402.00,0.0084
2401.00,0.0084
2400.00,0.0084
2399.00,0.0083
2398.00,0.0082
2397.00,0.0082
2396.00,0.0082
2395.00,0.0081
2394.00,0.0082
2393.00,0.0082
2392.00,0.0082
2391.00,0.0083
2390.00,0.0083
2389.00,0.0082
2388.00,0.0082
2387.00,0.0082
2386.00,0.0081
2385.00,0.0080
2384.00,0.0080
2383.00,0.0079
2382.00,0.0078
2381.00,0.0078
2380.00,0.0077
2379.00,0.0077
2378.00,0.0076
2377.00,0.0076
2376.00,0.0076
2375.00,0.0076
2374.00,0.0076
2373.00,0.0076
2372.00,0.0075
2371.00,0.0075
2370.00,0.0074
2369.00,0.0073
2368.00,0.0073
2367.00,0.0074
2366.00,0.0075
2365.00,0.0074
2364.00,0.0072
2363.00,0.0070
2362.00,0.0069
2361.00,0.0069
2360.00,0.0071
2359.00,0.0072
2358.00,0.0073
2357.00,0.0075
2356.00,0.0077
2355.00,0.0079
2354.00,0.0079
2353.00,0.0079
2352.00,0.0077
2351.00,0.0075
2350.00,0.0073
2349.00,0.0074
2348.00,0.0076
2347.00,0.0076
2346.00,0.0074
2345.00,0.0069
2344.00,0.0066
2343.00,0.0065
2342.00,0.0066
2341.00,0.0069
2340.00,0.0070
2339.00,0.0071
2338.00,0.0072
2337.00,0.0072
2336.00,0.0073
2335.00,0.0074
2334.00,0.0075
2333.00,0.0076
2332.00,0.0076
2331.00,0.0075
2330.00,0.0075
2329.00,0.0076
2328.00,0.0077
2327.00,0.0078
2326.00,0.0079
2325.00,0.0079
2324.00,0.0079
2323.00,0.0079
2322.00,0.0079
2321.00,0.0079
2320.00,0.0079
2319.00,0.0079
2318.00,0.0080
2317.00,0.0081
2316.00,0.0081
2315.00,0.0081
2314.00,0.0079
2313.00,0.0078
2312.00,0.0077
2311.00,0.0077
2310.00,0.0077
2309.00,0.0077
2308.00,0.0076
2307.00,0.0076
2306.00,0.0077
2305.00,0.0077
2304.00,0.0077
2303.00,0.0076
2302.00,0.0076
2301.00,0.0075
2300.00,0.0075
2299.00,0.0075
2298.00,0.0075
2297.00,0.0075
2296.00,0.0074
2295.00,0.0074
2294.00,0.0074
2293.00,0.0074
2292.00,0.0075
2291.00,0.0075
2290.00,0.0075
2289.00,0.0075
2288.00,0.0075
2287.00,0.0075
2286.00,0.0075
2285.00,0.0075
2284.00,0.0075
2283.00,0.0075
2282.00,0.0075
2281.00,0.0076
2280.00,0.0076
2279.00,0.0077
2278.00,0.0076
2277.00,0.0076
2276.00,0.0075
2275.00,0.0075
2274.00,0.0076
2273.00,0.0076
2272.00,0.0077
2271.00,0.0076
2270.00,0.0076
2269.00,0.0075
2268.00,0.0075
2267.00,0.0075
2266.00,0.0074
2265.00,0.0073
2264.00,0.0073
2263.00,0.0073
2262.00,0.0073
2261.00,0.0074
2260.00,0.0074
2259.00,0.0075
2258.00,0.0075
2257.00,0.0075
2256.00,0.0075
2255.00,0.0075
2254.00,0.0074
2253.00,0.0073
2252.00,0.0072
2251.00,0.0072
2250.00,0.0071
2249.00,0.0071
2248.00,0.0071
2247.00,0.0071
2246.00,0.0072
2245.00,0.0072
2244.00,0.0072
2243.00,0.0072
2242.00,0.0072
2241.00,0.0072
2240.00,0.0072
2239.00,0.0071
2238.00,0.0071
2237.00,0.0071
2236.00,0.0072
2235.00,0.0072
2234.00,0.0073
2233.00,0.0073
2232.00,0.0073
2231.00,0.0072
2230.00,0.0072
2229.00,0.0072
2228.00,0.0072
2227.00,0.0072
2226.00,0.0073
2225.00,0.0072
2224.00,0.0072
2223.00,0.0071
2222.00,0.0071
2221.00,0.0071
2220.00,0.0071
2219.00,0.0070
2218.00,0.0070
2217.00,0.0071
2216.00,0.0073
2215.00,0.0074
2214.00,0.0075
2213.00,0.0075
2212.00,0.0076
2211.00,0.0075
2210.00,0.0074
2209.00,0.0073
2208.00,0.0072
2207.00,0.0071
2206.00,0.0071
2205.00,0.0072
2204.00,0.0072
2203.00,0.0072
2202.00,0.0072
2201.00,0.0073
2200.00,0.0073
2199.00,0.0074
2198.00,0.0074
2197.00,0.0074
2196.00,0.0073
2195.00,0.0071
2194.00,0.0068
2193.00,0.0065
2192.00,0.0063
2191.00,0.0063
2190.00,0.0063
2189.00,0.0065
2188.00,0.0067
2187.00,0.0069
2186.00,0.0070
2185.00,0.0071
2184.00,0.0072
2183.00,0.0072
2182.00,0.0072
2181.00,0.0072
2180.00,0.0071
2179.00,0.0071
2178.00,0.0070
2177.00,0.0070
2176.00,0.0069
2175.00,0.0070
2174.00,0.0072
2173.00,0.0074
2172.00,0.0075
2171.00,0.0073
2170.00,0.0070
2169.00,0.0067
2168.00,0.0066
2167.00,0.0066
2166.00,0.0067
2165.00,0.0068
2164.00,0.0069
2163.00,0.0069
2162.00,0.0070
2161.00,0.0069
2160.00,0.0067
2159.00,0.0065
2158.00,0.0064
2157.00,0.0064
2156.00,0.0064
2155.00,0.0064
2154.00,0.0064
2153.00,0.0064
2152.00,0.0064
2151.00,0.0064
2150.00,0.0065
2149.00,0.0065
2148.00,0.0066
2147.00,0.0065
2146.00,0.0065
2145.00,0.0064
2144.00,0.0064
2143.00,0.0064
2142.00,0.0065
2141.00,0.0065
2140.00,0.0065
2139.00,0.0064
2138.00,0.0064
2137.00,0.0063
2136.00,0.0062
2135.00,0.0061
2134.00,0.0061
2133.00,0.0062
2132.00,0.0062
2131.00,0.0061
2130.00,0.0061
2129.00,0.0060
2128.00,0.0060
2127.00,0.0059
2126.00,0.0059
2125.00,0.0059
2124.00,0.0060
2123.00,0.0060
2122.00,0.0061
2121.00,0.0062
2120.00,0.0062
2119.00,0.0063
2118.00,0.0063
2117.00,0.0064
2116.00,0.0064
2115.00,0.0065
2114.00,0.0064
2113.00,0.0063
2112.00,0.0061
2111.00,0.0060
2110.00,0.0060
2109.00,0.0060
2108.00,0.0061
2107.00,0.0061
2106.00,0.0061
2105.00,0.0060
2104.00,0.0060
2103.00,0.0060
2102.00,0.0061
2101.00,0.0061
2100.00,0.0060
2099.00,0.0061
2098.00,0.0062
2097.00,0.0062
2096.00,0.0062
2095.00,0.0061
2094.00,0.0060
2093.00,0.0061
2092.00,0.0061
2091.00,0.0062
2090.00,0.0062
2089.00,0.0061
2088.00,0.0061
2087.00,0.0061
2086.00,0.0061
2085.00,0.0061
2084.00,0.0060
2083.00,0.0059
2082.00,0.0058
2081.00,0.0058
2080.00,0.0058
2079.00,0.0058
2078.00,0.0059
2077.00,0.0060
2076.00,0.0060
2075.00,0.0060
2074.00,0.0060
2073.00,0.0058
2072.00,0.0057
2071.00,0.0056
2070.00,0.0057
2069.00,0.0058
2068.00,0.0059
2067.00,0.0059
2066.00,0.0061
2065.00,0.0062
2064.00,0.0062
2063.00,0.0061
2062.00,0.0060
2061.00,0.0059
2060.00,0.0058
2059.00,0.0058
2058.00,0.0058
2057.00,0.0058
2056.00,0.0059
2055.00,0.0059
2054.00,0.0059
2053.00,0.0059
2052.00,0.0059
2051.00,0.0059
2050.00,0.0060
2049.00,0.0060
2048.00,0.0060
2047.00,0.0060
2046.00,0.0060
2045.00,0.0061
2044.00,0.0061
2043.00,0.0060
2042.00,0.0059
2041.00,0.0059
2040.00,0.0060
2039.00,0.0061
2038.00,0.0061
2037.00,0.0061
2036.00,0.0059
2035.00,0.0056
2034.00,0.0055
2033.00,0.0055
2032.00,0.0056
2031.00,0.0057
2030.00,0.0059
2029.00,0.0060
2028.00,0.0061
2027.00,0.0059
2026.00,0.0057
2025.00,0.0056
2024.00,0.0055
2023.00,0.0055
2022.00,0.0056
2021.00,0.0057
2020.00,0.0058
2019.00,0.0057
2018.00,0.0056
2017.00,0.0055
2016.00,0.0055
2015.00,0.0056
2014.00,0.0058
2013.00,0.0058
2012.00,0.0057
2011.00,0.0055
2010.00,0.0053
2009.00,0.0053
2008.00,0.0053
2007.00,0.0053
2006.00,0.0052
2005.00,0.0052
2004.00,0.0053
2003.00,0.0054
2002.00,0.0056
2001.00,0.0057
2000.00,0.0058
1999.00,0.0057
1998.00,0.0057
1997.00,0.0056
1996.00,0.0056
1995.00,0.0057
1994.00,0.0058
1993.00,0.0060
1992.00,0.0060
1991.00,0.0058
1990.00,0.0056
1989.00,0.0054
1988.00,0.0054
1987.00,0.0053
1986.00,0.0053
1985.00,0.0053
1984.00,0.0053
1983.00,0.0053
1982.00,0.0053
1981.00,0.0053
1980.00,0.0054
1979.00,0.0054
1978.00,0.0055
1977.00,0.0055
1976.00,0.0055
1975.00,0.0054
1974.00,0.0053
1973.00,0.0053
1972.00,0.0054
1971.00,0.0056
1970.00,0.0058
1969.00,0.0058
1968.00,0.0058
1967.00,0.0056
1966.00,0.0054
1965.00,0.0052
1964.00,0.0051
1963.00,0.0051
1962.00,0.0052
1961.00,0.0053
1960.00,0.0053
1959.00,0.0053
1958.00,0.0053
1957.00,0.0050
1956.00,0.0047
1955.00,0.0045
1954.00,0.0044
1953.00,0.0045
1952.00,0.0047
1951.00,0.0049
1950.00,0.0050
1949.00,0.0049
1948.00,0.0048
1947.00,0.0048
1946.00,0.0048
1945.00,0.0049
1944.00,0.0050
1943.00,0.0049
1942.00,0.0048
1941.00,0.0048
1940.00,0.0048
1939.00,0.0048
1938.00,0.0049
1937.00,0.0049
1936.00,0.0049
1935.00,0.0049
1934.00,0.0049
1933.00,0.0049
1932.00,0.0049
1931.00,0.0049
1930.00,0.0049
1929.00,0.0049
1928.00,0.0048
1927.00,0.0048
1926.00,0.0049
1925.00,0.0050
1924.00,0.0050
1923.00,0.0049
1922.00,0.0048
1921.00,0.0047
1920.00,0.0047
1919.00,0.0047
1918.00,0.0046
1917.00,0.0046
1916.00,0.0045
1915.00,0.0045
1914.00,0.0044
1913.00,0.0043
1912.00,0.0042
1911.00,0.0042
1910.00,0.0042
1909.00,0.0043
1908.00,0.0043
1907.00,0.0043
1906.00,0.0042
1905.00,0.0041
1904.00,0.0041
1903.00,0.0041
1902.00,0.0041
1901.00,0.0041
1900.00,0.0041
1899.00,0.0040
1898.00,0.0039
1897.00,0.0039
1896.00,0.0040
1895.00,0.0041
1894.00,0.0041
1893.00,0.0042
1892.00,0.0042
1891.00,0.0041
1890.00,0.0040
1889.00,0.0039
1888.00,0.0039
1887.00,0.0040
1886.00,0.0040
1885.00,0.0040
1884.00,0.0040
1883.00,0.0039
1882.00,0.0039
1881.00,0.0040
1880.00,0.0040
1879.00,0.0040
1878.00,0.0039
1877.00,0.0039
1876.00,0.0038
1875.00,0.0038
1874.00,0.0038
1873.00,0.0038
1872.00,0.0039
1871.00,0.0039
1870.00,0.0038
1869.00,0.0036
1868.00,0.0034
1867.00,0.0034
1866.00,0.0035
1865.00,0.0036
1864.00,0.0036
1863.00,0.0035
1862.00,0.0035
1861.00,0.0034
1860.00,0.0035
1859.00,0.0035
1858.00,0.0036
1857.00,0.0037
1856.00,0.0037
1855.00,0.0037
1854.00,0.0037
1853.00,0.0036
1852.00,0.0035
1851.00,0.0035
1850.00,0.0035
1849.00,0.0034
1848.00,0.0034
1847.00,0.0034
1846.00,0.0034
1845.00,0.0034
1844.00,0.0033
1843.00,0.0032
1842.00,0.0032
1841.00,0.0032
1840.00,0.0033
1839.00,0.0033
1838.00,0.0033
1837.00,0.0033
1836.00,0.0033
1835.00,0.0033
1834.00,0.0033
1833.00,0.0034
1832.00,0.0034
1831.00,0.0034
1830.00,0.0033
1829.00,0.0032
1828.00,0.0032
1827.00,0.0033
1826.00,0.0033
1825.00,0.0032
1824.00,0.0031
1823.00,0.0031
1822.00,0.0031
1821.00,0.0032
1820.00,0.0032
1819.00,0.0031
1818.00,0.0031
1817.00,0.0032
1816.00,0.0033
1815.00,0.0033
1814.00,0.0033
1813.00,0.0033
1812.00,0.0032
1811.00,0.0031
1810.00,0.0031
1809.00,0.0031
1808.00,0.0032
1807.00,0.0032
1806.00,0.0033
1805.00,0.0034
1804.00,0.0035
1803.00,0.0036
1802.00,0.0037
1801.00,0.0037
1800.00,0.0036
1799.00,0.0036
1798.00,0.0036
1797.00,0.0037
1796.00,0.0039
1795.00,0.0040
1794.00,0.0041
1793.00,0.0041
1792.00,0.0041
1791.00,0.0041
1790.00,0.0042
1789.00,0.0044
1788.00,0.0045
1787.00,0.0046
1786.00,0.0047
1785.00,0.0048
1784.00,0.0049
1783.00,0.0050
1782.00,0.0051
1781.00,0.0052
1780.00,0.0053
1779.00,0.0054
1778.00,0.0056
1777.00,0.0057
1776.00,0.0059
1775.00,0.0060
1774.00,0.0062
1773.00,0.0063
1772.00,0.0063
1771.00,0.0063
1770.00,0.0065
1769.00,0.0067
1768.00,0.0069
1767.00,0.0069
1766.00,0.0070
1765.00,0.0072
1764.00,0.0073
1763.00,0.0075
1762.00,0.0075
1761.00,0.0075
1760.00,0.0076
1759.00,0.0078
1758.00,0.0079
1757.00,0.0080
1756.00,0.0080
1755.00,0.0081
1754.00,0.0081
1753.00,0.0082
1752.00,0.0082
1751.00,0.0082
1750.00,0.0083
1749.00,0.0084
1748.00,0.0086
1747.00,0.0088
1746.00,0.0089
1745.00,0.0091
1744.00,0.0093
1743.00,0.0094
1742.00,0.0096
1741.00,0.0097
1740.00,0.0097
1739.00,0.0098
1738.00,0.0100
1737.00,0.0103
1736.00,0.0107
1735.00,0.0109
1734.00,0.0110
1733.00,0.0110
1732.00,0.0112
1731.00,0.0115
1730.00,0.0118
1729.00,0.0121
1728.00,0.0124
1727.00,0.0126
1726.00,0.0127
1725.00,0.0129
1724.00,0.0131
1723.00,0.0133
1722.00,0.0135
1721.00,0.0137
1720.00,0.0138
1719.00,0.0138
1718.00,0.0139
1717.00,0.0141
1716.00,0.0143
1715.00,0.0145
1714.00,0.0147
1713.00,0.0149
1712.00,0.0150
1711.00,0.0151
1710.00,0.0151
1709.00,0.0152
1708.00,0.0153
1707.00,0.0154
1706.00,0.0155
1705.00,0.0155
1704.00,0.0156
1703.00,0.0158
1702.00,0.0158
1701.00,0.0158
1700.00,0.0157
1699.00,0.0157
1698.00,0.0158
1697.00,0.0160
1696.00,0.0160
1695.00,0.0158
1694.00,0.0157
1693.00,0.0158
1692.00,0.0159
1691.00,0.0159
1690.00,0.0158
1689.00,0.0158
1688.00,0.0158
1687.00,0.0158
1686.00,0.0158
1685.00,0.0158
1684.00,0.0158
1683.00,0.0158
1682.00,0.0159
1681.00,0.0161
1680.00,0.0161
1679.00,0.0161
1678.00,0.0162
1677.00,0.0162
1676.00,0.0163
1675.00,0.0163
1674.00,0.0163
1673.00,0.0163
1672.00,0.0164
1671.00,0.0166
1670.00,0.0167
1669.00,0.0168
1668.00,0.0168
1667.00,0.0169
1666.00,0.0170
1665.00,0.0171
1664.00,0.0172
1663.00,0.0173
1662.00,0.0174
1661.00,0.0174
1660.00,0.0175
1659.00,0.0175
1658.00,0.0175
1657.00,0.0175
1656.00,0.0175
1655.00,0.0174
1654.00,0.0177
1653.00,0.0181
1652.00,0.0179
1651.00,0.0179
1650.00,0.0182
1649.00,0.0185
1648.00,0.0188
1647.00,0.0191
1646.00,0.0193
1645.00,0.0194
1644.00,0.0196
1643.00,0.0197
1642.00,0.0198
1641.00,0.0199
1640.00,0.0199
1639.00,0.0199
1638.00,0.0199
1637.00,0.0202
1636.00,0.0207
1635.00,0.0210
1634.00,0.0210
1633.00,0.0212
1632.00,0.0213
1631.00,0.0215
1630.00,0.0216
1629.00,0.0218
1628.00,0.0220
1627.00,0.0221
1626.00,0.0223
1625.00,0.0225
1624.00,0.0228
1623.00,0.0230
1622.00,0.0231
1621.00,0.0232
1620.00,0.0232
1619.00,0.0233
1618.00,0.0234
1617.00,0.0236
1616.00,0.0237
1615.00,0.0239
1614.00,0.0241
1613.00,0.0243
1612.00,0.0244
1611.00,0.0244
1610.00,0.0245
1609.00,0.0247
1608.00,0.0249
1607.00,0.0250
1606.00,0.0251
1605.00,0.0252
1604.00,0.0253
1603.00,0.0254
1602.00,0.0256
1601.00,0.0257
1600.00,0.0258
1599.00,0.0259
1598.00,0.0259
1597.00,0.0260
1596.00,0.0260
1595.00,0.0261
1594.00,0.0262
1593.00,0.0262
1592.00,0.0263
1591.00,0.0263
1590.00,0.0264
1589.00,0.0265
1588.00,0.0265
1587.00,0.0266
1586.00,0.0266
1585.00,0.0265
1584.00,0.0265
1583.00,0.0264
1582.00,0.0264
1581.00,0.0264
1580.00,0.0263
1579.00,0.0263
1578.00,0.0263
1577.00,0.0264
1576.00,0.0263
1575.00,0.0262
1574.00,0.0261
1573.00,0.0261
1572.00,0.0261
1571.00,0.0261
1570.00,0.0260
1569.00,0.0259
1568.00,0.0257
1567.00,0.0257
1566.00,0.0256
1565.00,0.0255
1564.00,0.0254
1563.00,0.0253
1562.00,0.0251
1561.00,0.0246
1560.00,0.0242
1559.00,0.0245
1558.00,0.0245
1557.00,0.0244
1556.00,0.0244
1555.00,0.0243
1554.00,0.0241
1553.00,0.0239
1552.00,0.0238
1551.00,0.0237
1550.00,0.0236
1549.00,0.0234
1548.00,0.0232
1547.00,0.0229
1546.00,0.0227
1545.00,0.0225
1544.00,0.0223
1543.00,0.0222
1542.00,0.0219
1541.00,0.0218
1540.00,0.0217
1539.00,0.0214
1538.00,0.0211
1537.00,0.0210
1536.00,0.0210
1535.00,0.0209
1534.00,0.0207
1533.00,0.0206
1532.00,0.0204
1531.00,0.0202
1530.00,0.0200
1529.00,0.0199
1528.00,0.0198
1527.00,0.0196
1526.00,0.0194
1525.00,0.0192
1524.00,0.0191
1523.00,0.0190
1522.00,0.0189
1521.00,0.0188
1520.00,0.0187
1519.00,0.0186
1518.00,0.0186
1517.00,0.0186
1516.00,0.0186
1515.00,0.0185
1514.00,0.0185
1513.00,0.0184
1512.00,0.0183
1511.00,0.0181
1510.00,0.0180
1509.00,0.0178
1508.00,0.0178
1507.00,0.0179
1506.00,0.0178
1505.00,0.0175
1504.00,0.0175
1503.00,0.0175
1502.00,0.0175
1501.00,0.0175
1500.00,0.0174
1499.00,0.0173
1498.00,0.0173
1497.00,0.0173
1496.00,0.0174
1495.00,0.0174
1494.00,0.0175
1493.00,0.0175
1492.00,0.0176
1491.00,0.0176
1490.00,0.0176
1489.00,0.0177
1488.00,0.0177
1487.00,0.0177
1486.00,0.0177
1485.00,0.0178
1484.00,0.0178
1483.00,0.0178
1482.00,0.0178
1481.00,0.0179
1480.00,0.0179
1479.00,0.0180
1478.00,0.0180
1477.00,0.0181
1476.00,0.0181
1475.00,0.0182
1474.00,0.0182
1473.00,0.0184
1472.00,0.0185
1471.00,0.0186
1470.00,0.0187
1469.00,0.0187
1468.00,0.0188
1467.00,0.0189
1466.00,0.0190
1465.00,0.0192
1464.00,0.0193
1463.00,0.0194
1462.00,0.0194
1461.00,0.0194
1460.00,0.0194
1459.00,0.0194
1458.00,0.0196
1457.00,0.0200
1456.00,0.0201
1455.00,0.0200
1454.00,0.0201
1453.00,0.0201
1452.00,0.0202
1451.00,0.0203
1450.00,0.0204
1449.00,0.0205
1448.00,0.0206
1447.00,0.0207
1446.00,0.0207
1445.00,0.0207
1444.00,0.0208
1443.00,0.0209
1442.00,0.0210
1441.00,0.0210
1440.00,0.0210
1439.00,0.0211
1438.00,0.0212
1437.00,0.0213
1436.00,0.0215
1435.00,0.0215
1434.00,0.0215
1433.00,0.0215
1432.00,0.0216
1431.00,0.0216
1430.00,0.0217
1429.00,0.0218
1428.00,0.0219
1427.00,0.0219
1426.00,0.0219
1425.00,0.0219
1424.00,0.0219
1423.00,0.0220
1422.00,0.0222
1421.00,0.0223
1420.00,0.0224
1419.00,0.0225
1418.00,0.0226
1417.00,0.0226
1416.00,0.0227
1415.00,0.0227
1414.00,0.0228
1413.00,0.0228
1412.00,0.0229
1411.00,0.0230
1410.00,0.0230
1409.00,0.0230
1408.00,0.0230
1407.00,0.0230
1406.00,0.0231
1405.00,0.0232
1404.00,0.0233
1403.00,0.0233
1402.00,0.0234
1401.00,0.0234
1400.00,0.0235
1399.00,0.0236
1398.00,0.0237
1397.00,0.0238
1396.00,0.0239
1395.00,0.0240
1394.00,0.0241
1393.00,0.0241
1392.00,0.0240
1391.00,0.0240
1390.00,0.0241
1389.00,0.0241
1388.00,0.0242
1387.00,0.0243
1386.00,0.0244
1385.00,0.0245
1384.00,0.0245
1383.00,0.0245
1382.00,0.0245
1381.00,0.0244
1380.00,0.0244
1379.00,0.0244
1378.00,0.0244
1377.00,0.0244
1376.00,0.0245
1375.00,0.0245
1374.00,0.0245
1373.00,0.0245
1372.00,0.0245
1371.00,0.0244
1370.00,0.0244
1369.00,0.0244
1368.00,0.0244
1367.00,0.0243
1366.00,0.0242
1365.00,0.0242
1364.00,0.0242
1363.00,0.0243
1362.00,0.0243
1361.00,0.0243
1360.00,0.0243
1359.00,0.0242
1358.00,0.0242
1357.00,0.0241
1356.00,0.0241
1355.00,0.0240
1354.00,0.0239
1353.00,0.0238
1352.00,0.0237
1351.00,0.0237
1350.00,0.0236
1349.00,0.0236
1348.00,0.0236
1347.00,0.0235
1346.00,0.0235
1345.00,0.0234
1344.00,0.0233
1343.00,0.0233
1342.00,0.0232
1341.00,0.0232
1340.00,0.0232
1339.00,0.0232
1338.00,0.0233
1337.00,0.0233
1336.00,0.0233
1335.00,0.0233
1334.00,0.0233
1333.00,0.0232
1332.00,0.0231
1331.00,0.0231
1330.00,0.0231
1329.00,0.0230
1328.00,0.0230
1327.00,0.0230
1326.00,0.0229
1325.00,0.0229
1324.00,0.0229
1323.00,0.0229
1322.00,0.0228
1321.00,0.0228
1320.00,0.0227
1319.00,0.0227
1318.00,0.0227
1317.00,0.0227
1316.00,0.0227
1315.00,0.0227
1314.00,0.0228
1313.00,0.0228
1312.00,0.0228
1311.00,0.0227
1310.00,0.0227
1309.00,0.0227
1308.00,0.0228
1307.00,0.0228
1306.00,0.0229
1305.00,0.0229
1304.00,0.0229
1303.00,0.0228
1302.00,0.0228
1301.00,0.0229
1300.00,0.0229
1299.00,0.0230
1298.00,0.0231
1297.00,0.0230
1296.00,0.0230
1295.00,0.0230
1294.00,0.0231
1293.00,0.0231
1292.00,0.0233
1291.00,0.0233
1290.00,0.0234
1289.00,0.0234
1288.00,0.0234
1287.00,0.0235
1286.00,0.0236
1285.00,0.0236
1284.00,0.0236
1283.00,0.0237
1282.00,0.0237
1281.00,0.0237
1280.00,0.0238
1279.00,0.0239
1278.00,0.0239
1277.00,0.0240
1276.00,0.0240
1275.00,0.0240
1274.00,0.0239
1273.00,0.0239
1272.00,0.0240
1271.00,0.0240
1270.00,0.0240
1269.00,0.0240
1268.00,0.0239
1267.00,0.0239
1266.00,0.0239
1265.00,0.0239
1264.00,0.0239
1263.00,0.0239
1262.00,0.0239
1261.00,0.0238
1260.00,0.0239
1259.00,0.0239
1258.00,0.0240
1257.00,0.0241
1256.00,0.0242
1255.00,0.0243
1254.00,0.0243
1253.00,0.0243
1252.00,0.0243
1251.00,0.0244
1250.00,0.0245
1249.00,0.0245
1248.00,0.0246
1247.00,0.0246
1246.00,0.0245
1245.00,0.0245
1244.00,0.0245
1243.00,0.0246
1242.00,0.0246
1241.00,0.0246
1240.00,0.0246
1239.00,0.0246
1238.00,0.0245
1237.00,0.0245
1236.00,0.0245
1235.00,0.0245
1234.00,0.0245
1233.00,0.0245
1232.00,0.0245
1231.00,0.0245
1230.00,0.0245
1229.00,0.0246
1228.00,0.0247
1227.00,0.0247
1226.00,0.0246
1225.00,0.0246
1224.00,0.0246
1223.00,0.0246
1222.00,0.0246
1221.00,0.0246
1220.00,0.0245
1219.00,0.0244
1218.00,0.0243
1217.00,0.0242
1216.00,0.0242
1215.00,0.0243
1214.00,0.0243
1213.00,0.0243
1212.00,0.0243
1211.00,0.0242
1210.00,0.0242
1209.00,0.0241
1208.00,0.0241
1207.00,0.0241
1206.00,0.0241
1205.00,0.0240
1204.00,0.0239
1203.00,0.0239
1202.00,0.0238
1201.00,0.0238
1200.00,0.0239
1199.00,0.0239
1198.00,0.0238
1197.00,0.0237
1196.00,0.0236
1195.00,0.0236
1194.00,0.0236
1193.00,0.0237
1192.00,0.0237
1191.00,0.0236
1190.00,0.0236
1189.00,0.0235
1188.00,0.0235
1187.00,0.0235
1186.00,0.0236
1185.00,0.0236
1184.00,0.0236
1183.00,0.0235
1182.00,0.0234
1181.00,0.0232
1180.00,0.0232
1179.00,0.0233
1178.00,0.0234
1177.00,0.0234
1176.00,0.0234
1175.00,0.0234
1174.00,0.0233
1173.00,0.0233
1172.00,0.0233
1171.00,0.0233
1170.00,0.0233
1169.00,0.0233
1168.00,0.0233
1167.00,0.0233
1166.00,0.0233
1165.00,0.0232
1164.00,0.0233
1163.00,0.0233
1162.00,0.0233
1161.00,0.0232
1160.00,0.0232
1159.00,0.0232
1158.00,0.0232
1157.00,0.0231
1156.00,0.0230
1155.00,0.0230
1154.00,0.0230
1153.00,0.0231
1152.00,0.0231
1151.00,0.0232
1150.00,0.0232
1149.00,0.0233
1148.00,0.0233
1147.00,0.0234
1146.00,0.0233
1145.00,0.0232
1144.00,0.0231
1143.00,0.0231
1142.00,0.0230
1141.00,0.0229
1140.00,0.0229
1139.00,0.0229
1138.00,0.0229
1137.00,0.0229
1136.00,0.0230
1135.00,0.0231
1134.00,0.0231
1133.00,0.0231
1132.00,0.0231
1131.00,0.0232
1130.00,0.0233
1129.00,0.0234
1128.00,0.0235
1127.00,0.0237
1126.00,0.0237
1125.00,0.0236
1124.00,0.0235
1123.00,0.0235
1122.00,0.0236
1121.00,0.0237
1120.00,0.0238
1119.00,0.0239
1118.00,0.0239
1117.00,0.0238
1116.00,0.0238
1115.00,0.0237
1114.00,0.0238
1113.00,0.0238
1112.00,0.0238
1111.00,0.0237
1110.00,0.0237
1109.00,0.0237
1108.00,0.0237
1107.00,0.0238
1106.00,0.0238
1105.00,0.0239
1104.00,0.0240
1103.00,0.0240
1102.00,0.0240
1101.00,0.0239
1100.00,0.0239
1099.00,0.0239
1098.00,0.0238
1097.00,0.0237
1096.00,0.0235
1095.00,0.0234
1094.00,0.0235
1093.00,0.0238
1092.00,0.0239
1091.00,0.0239
1090.00,0.0239
1089.00,0.0239
1088.00,0.0240
1087.00,0.0240
1086.00,0.0240
1085.00,0.0239
1084.00,0.0238
1083.00,0.0238
1082.00,0.0238
1081.00,0.0238
1080.00,0.0237
1079.00,0.0238
1078.00,0.0239
1077.00,0.0240
1076.00,0.0241
1075.00,0.0241
1074.00,0.0240
1073.00,0.0240
1072.00,0.0241
1071.00,0.0242
1070.00,0.0242
1069.00,0.0242
1068.00,0.0240
1067.00,0.0239
1066.00,0.0238
1065.00,0.0238
1064.00,0.0238
1063.00,0.0238
1062.00,0.0239
1061.00,0.0239
1060.00,0.0239
1059.00,0.0240
1058.00,0.0241
1057.00,0.0241
1056.00,0.0241
1055.00,0.0241
1054.00,0.0242
1053.00,0.0243
1052.00,0.0246
1051.00,0.0248
1050.00,0.0249
1049.00,0.0250
1048.00,0.0250
1047.00,0.0249
1046.00,0.0248
1045.00,0.0247
1044.00,0.0247
1043.00,0.0247
1042.00,0.0247
1041.00,0.0248
1040.00,0.0249
1039.00,0.0249
1038.00,0.0249
1037.00,0.0249
1036.00,0.0249
1035.00,0.0250
1034.00,0.0251
1033.00,0.0251
1032.00,0.0250
1031.00,0.0249
1030.00,0.0248
1029.00,0.0248
1028.00,0.0248
1027.00,0.0246
1026.00,0.0243
1025.00,0.0240
1024.00,0.0238
1023.00,0.0237
1022.00,0.0236
1021.00,0.0235
1020.00,0.0236
1019.00,0.0236
1018.00,0.0237
1017.00,0.0237
1016.00,0.0237
1015.00,0.0238
1014.00,0.0239
1013.00,0.0240
1012.00,0.0241
1011.00,0.0241
1010.00,0.0241
1009.00,0.0240
1008.00,0.0239
1007.00,0.0239
1006.00,0.0240
1005.00,0.0240
1004.00,0.0239
1003.00,0.0238
1002.00,0.0236
1001.00,0.0235
1000.00,0.0235
999.00,0.0236
998.00,0.0236
997.00,0.0235
996.00,0.0233
995.00,0.0231
994.00,0.0230
993.00,0.0229
992.00,0.0229
991.00,0.0228
990.00,0.0227
989.00,0.0226
988.00,0.0225
987.00,0.0225
986.00,0.0225
985.00,0.0224
984.00,0.0224
983.00,0.0224
982.00,0.0223
981.00,0.0223
980.00,0.0223
979.00,0.0222
978.00,0.0221
977.00,0.0220
976.00,0.0219
975.00,0.0218
974.00,0.0218
973.00,0.0218
972.00,0.0219
971.00,0.0220
970.00,0.0222
969.00,0.0223
968.00,0.0223
967.00,0.0223
966.00,0.0221
965.00,0.0220
964.00,0.0219
963.00,0.0219
962.00,0.0218
961.00,0.0217
960.00,0.0216
959.00,0.0216
958.00,0.0216
957.00,0.0217
956.00,0.0218
955.00,0.0219
954.00,0.0221
953.00,0.0222
952.00,0.0221
951.00,0.0220
950.00,0.0218
949.00,0.0217
948.00,0.0217
947.00,0.0218
946.00,0.0220
945.00,0.0222
944.00,0.0223
943.00,0.0223
942.00,0.0223
941.00,0.0225
940.00,0.0227
939.00,0.0228
938.00,0.0227
937.00,0.0225
936.00,0.0224
935.00,0.0223
934.00,0.0223
933.00,0.0222
932.00,0.0221
931.00,0.0220
930.00,0.0219
929.00,0.0219
928.00,0.0221
927.00,0.0224
926.00,0.0226
925.00,0.0227
924.00,0.0228
923.00,0.0228
922.00,0.0228
921.00,0.0227
920.00,0.0226
919.00,0.0226
918.00,0.0227
917.00,0.0228
916.00,0.0230
915.00,0.0231
914.00,0.0231
913.00,0.0231
912.00,0.0233
911.00,0.0235
910.00,0.0238
909.00,0.0240
908.00,0.0240
907.00,0.0238
906.00,0.0234
905.00,0.0231
904.00,0.0229
903.00,0.0227
902.00,0.0225
901.00,0.0223
900.00,0.0223
899.00,0.0225
898.00,0.0227
897.00,0.0230
896.00,0.0232
895.00,0.0234
894.00,0.0236
893.00,0.0237
892.00,0.0237
891.00,0.0236
890.00,0.0233
889.00,0.0231
888.00,0.0230
887.00,0.0229
886.00,0.0227
885.00,0.0226
884.00,0.0224
883.00,0.0225
882.00,0.0228
881.00,0.0233
880.00,0.0238
879.00,0.0240
878.00,0.0239
877.00,0.0237
876.00,0.0236
875.00,0.0237
874.00,0.0238
873.00,0.0237
872.00,0.0233
871.00,0.0228
870.00,0.0225
869.00,0.0225
868.00,0.0228
867.00,0.0231
866.00,0.0233
865.00,0.0235
864.00,0.0236
863.00,0.0237
862.00,0.0237
861.00,0.0236
860.00,0.0234
859.00,0.0233
858.00,0.0232
857.00,0.0232
856.00,0.0232
855.00,0.0232
854.00,0.0233
853.00,0.0235
852.00,0.0238
851.00,0.0241
850.00,0.0243
849.00,0.0243
848.00,0.0242
847.00,0.0244
846.00,0.0247
845.00,0.0250
844.00,0.0250
843.00,0.0245
842.00,0.0238
841.00,0.0232
840.00,0.0231
839.00,0.0234
838.00,0.0239
837.00,0.0245
836.00,0.0249
835.00,0.0252
834.00,0.0255
833.00,0.0258
832.00,0.0261
831.00,0.0264
830.00,0.0263
829.00,0.0259
828.00,0.0253
827.00,0.0246
826.00,0.0241
825.00,0.0239
824.00,0.0241
823.00,0.0244
822.00,0.0248
821.00,0.0251
820.00,0.0252
819.00,0.0254
818.00,0.0259
817.00,0.0264
816.00,0.0269
815.00,0.0270
814.00,0.0265
813.00,0.0259
812.00,0.0253
811.00,0.0252
810.00,0.0255
809.00,0.0259
808.00,0.0260
807.00,0.0258
806.00,0.0256
805.00,0.0257
804.00,0.0260
803.00,0.0265
802.00,0.0270
801.00,0.0274
800.00,0.0274
799.00,0.0271
798.00,0.0267
797.00,0.0265
796.00,0.0266
795.00,0.0268
794.00,0.0269
793.00,0.0269
792.00,0.0269
791.00,0.0269
790.00,0.0271
789.00,0.0275
788.00,0.0282
787.00,0.0287
786.00,0.0289
785.00,0.0288
784.00,0.0284
783.00,0.0281
782.00,0.0279
781.00,0.0279
780.00,0.0280
779.00,0.0280
778.00,0.0276
777.00,0.0273
776.00,0.0274
775.00,0.0280
774.00,0.0288
773.00,0.0296
772.00,0.0299
771.00,0.0297
770.00,0.0294
769.00,0.0290
768.00,0.0287
767.00,0.0285
766.00,0.0282
765.00,0.0279
764.00,0.0276
763.00,0.0275
762.00,0.0276
761.00,0.0278
760.00,0.0283
759.00,0.0291
758.00,0.0298
757.00,0.0303
756.00,0.0304
755.00,0.0303
754.00,0.0301
753.00,0.0301
752.00,0.0303
751.00,0.0302
750.00,0.0298
749.00,0.0291
748.00,0.0285
747.00,0.0283
746.00,0.0286
745.00,0.0294
744.00,0.0301
743.00,0.0303
742.00,0.0302
741.00,0.0300
740.00,0.0301
739.00,0.0305
738.00,0.0309
737.00,0.0311
736.00,0.0309
735.00,0.0305
734.00,0.0299
733.00,0.0295
732.00,0.0295
731.00,0.0299
730.00,0.0303
729.00,0.0305
728.00,0.0305
727.00,0.0305
726.00,0.0305
725.00,0.0307
724.00,0.0310
723.00,0.0312
722.00,0.0312
721.00,0.0309
720.00,0.0304
719.00,0.0299
718.00,0.0298
717.00,0.0302
716.00,0.0309
715.00,0.0316
714.00,0.0320
713.00,0.0323
712.00,0.0324
711.00,0.0327
710.00,0.0331
709.00,0.0334
708.00,0.0333
707.00,0.0327
706.00,0.0321
705.00,0.0319
704.00,0.0323
703.00,0.0329
702.00,0.0334
701.00,0.0335
700.00,0.0334
699.00,0.0332
698.00,0.0333
697.00,0.0338
696.00,0.0344
695.00,0.0348
694.00,0.0349
693.00,0.0346
692.00,0.0341
691.00,0.0336
690.00,0.0331
689.00,0.0328
688.00,0.0328
687.00,0.0330
686.00,0.0332
685.00,0.0330
684.00,0.0329
683.00,0.0331
682.00,0.0341
681.00,0.0355
680.00,0.0367
679.00,0.0371
678.00,0.0365
677.00,0.0354
676.00,0.0346
675.00,0.0347
674.00,0.0355
673.00,0.0364
672.00,0.0366
671.00,0.0360
670.00,0.0346
669.00,0.0338
668.00,0.0352
667.00,0.0378
666.00,0.0395
665.00,0.0396
664.00,0.0384
663.00,0.0368
662.00,0.0357
661.00,0.0359
660.00,0.0371
659.00,0.0383
658.00,0.0387
657.00,0.0381
656.00,0.0374
655.00,0.0370
654.00,0.0373
653.00,0.0383
652.00,0.0399
651.00,0.0411
650.00,0.0412
