Created as New Dataset,
cm-1,A
4000.00,0.0210
3999.00,0.0210
3998.00,0.0210
3997.00,0.0210
3996.00,0.0210
3995.00,0.0211
3994.00,0.0211
3993.00,0.0211
3992.00,0.0211
3991.00,0.0210
3990.00,0.0210
3989.00,0.0209
3988.00,0.0209
3987.00,0.0209
3986.00,0.0209
3985.00,0.0209
3984.00,0.0209
3983.00,0.0209
3982.00,0.0209
3981.00,0.0209
3980.00,0.0210
3979.00,0.0210
3978.00,0.0210
3977.00,0.0210
3976.00,0.0211
3975.00,0.0211
3974.00,0.0211
3973.00,0.0211
3972.00,0.0211
3971.00,0.0211
3970.00,0.0210
3969.00,0.0210
3968.00,0.0209
3967.00,0.0209
3966.00,0.0209
3965.00,0.0209
3964.00,0.0210
3963.00,0.0210
3962.00,0.0211
3961.00,0.0211
3960.00,0.0212
3959.00,0.0212
3958.00,0.0212
3957.00,0.0212
3956.00,0.0212
3955.00,0.0212
3954.00,0.0212
3953.00,0.0212
3952.00,0.0212
3951.00,0.0213
3950.00,0.0213
3949.00,0.0212
3948.00,0.0213
3947.00,0.0214
3946.00,0.0215
3945.00,0.0216
3944.00,0.0216
3943.00,0.0215
3942.00,0.0215
3941.00,0.0214
3940.00,0.0214
3939.00,0.0213
3938.00,0.0212
3937.00,0.0211
3936.00,0.0211
3935.00,0.0213
3934.00,0.0213
3933.00,0.0214
3932.00,0.0215
3931.00,0.0215
3930.00,0.0216
3929.00,0.0216
3928.00,0.0217
3927.00,0.0217
3926.00,0.0217
3925.00,0.0215
3924.00,0.0215
3923.00,0.0215
3922.00,0.0216
3921.00,0.0215
3920.00,0.0214
3919.00,0.0214
3918.00,0.0215
3917.00,0.0215
3916.00,0.0215
3915.00,0.0215
3914.00,0.0214
3913.00,0.0213
3912.00,0.0212
3911.00,0.0211
3910.00,0.0211
3909.00,0.0212
3908.00,0.0214
3907.00,0.0216
3906.00,0.0216
3905.00,0.0215
3904.00,0.0216
3903.00,0.0219
3902.00,0.0223
3901.00,0.0225
3900.00,0.0225
3899.00,0.0222
3898.00,0.0220
3897.00,0.0218
3896.00,0.0218
3895.00,0.0218
3894.00,0.0217
3893.00,0.0217
3892.00,0.0215
3891.00,0.0213
3890.00,0.0213
3889.00,0.0216
3888.00,0.0219
3887.00,0.0219
3886.00,0.0216
3885.00,0.0216
3884.00,0.0220
3883.00,0.0225
3882.00,0.0226
3881.00,0.0223
3880.00,0.0218
3879.00,0.0217
3878.00,0.0218
3877.00,0.0221
3876.00,0.0221
3875.00,0.0218
3874.00,0.0217
3873.00,0.0219
3872.00,0.0223
3871.00,0.0223
3870.00,0.0220
3869.00,0.0218
3868.00,0.0221
3867.00,0.0225
3866.00,0.0224
3865.00,0.0220
3864.00,0.0218
3863.00,0.0219
3862.00,0.0220
3861.00,0.0219
3860.00,0.0217
3859.00,0.0215
3858.00,0.0215
3857.00,0.0218
3856.00,0.0222
3855.00,0.0222
3854.00,0.0220
3853.00,0.0221
3852.00,0.0224
3851.00,0.0226
3850.00,0.0224
3849.00,0.0220
3848.00,0.0217
3847.00,0.0215
3846.00,0.0215
3845.00,0.0216
3844.00,0.0216
3843.00,0.0217
3842.00,0.0219
3841.00,0.0223
3840.00,0.0224
3839.00,0.0224
3838.00,0.0224
3837.00,0.0224
3836.00,0.0224
3835.00,0.0224
3834.00,0.0223
3833.00,0.0221
3832.00,0.0218
3831.00,0.0217
3830.00,0.0218
3829.00,0.0219
3828.00,0.0219
3827.00,0.0217
3826.00,0.0215
3825.00,0.0216
3824.00,0.0221
3823.00,0.0223
3822.00,0.0220
3821.00,0.0217
3820.00,0.0218
3819.00,0.0223
3818.00,0.0227
3817.00,0.0224
3816.00,0.0218
3815.00,0.0216
3814.00,0.0217
3813.00,0.0218
3812.00,0.0215
3811.00,0.0213
3810.00,0.0213
3809.00,0.0214
3808.00,0.0213
3807.00,0.0211
3806.00,0.0212
3805.00,0.0217
3804.00,0.0223
3803.00,0.0225
3802.00,0.0221
3801.00,0.0219
3800.00,0.0222
3799.00,0.0225
3798.00,0.0224
3797.00,0.0220
3796.00,0.0216
3795.00,0.0215
3794.00,0.0216
3793.00,0.0216
3792.00,0.0215
3791.00,0.0214
3790.00,0.0214
3789.00,0.0214
3788.00,0.0215
3787.00,0.0215
3786.00,0.0215
3785.00,0.0215
3784.00,0.0215
3783.00,0.0217
3782.00,0.0218
3781.00,0.0218
3780.00,0.0216
3779.00,0.0215
3778.00,0.0215
3777.00,0.0216
3776.00,0.0216
3775.00,0.0215
3774.00,0.0213
3773.00,0.0214
3772.00,0.0214
3771.00,0.0214
3770.00,0.0213
3769.00,0.0215
3768.00,0.0218
3767.00,0.0220
3766.00,0.0218
3765.00,0.0216
3764.00,0.0215
3763.00,0.0218
3762.00,0.0220
3761.00,0.0219
3760.00,0.0218
3759.00,0.0218
3758.00,0.0218
3757.00,0.0217
3756.00,0.0218
3755.00,0.0219
3754.00,0.0219
3753.00,0.0216
3752.00,0.0213
3751.00,0.0214
3750.00,0.0216
3749.00,0.0218
3748.00,0.0221
3747.00,0.0226
3746.00,0.0228
3745.00,0.0224
3744.00,0.0221
3743.00,0.0221
3742.00,0.0223
3741.00,0.0221
3740.00,0.0218
3739.00,0.0217
3738.00,0.0218
3737.00,0.0219
3736.00,0.0221
3735.00,0.0223
3734.00,0.0225
3733.00,0.0224
3732.00,0.0220
3731.00,0.0217
3730.00,0.0216
3729.00,0.0216
3728.00,0.0216
3727.00,0.0214
3726.00,0.0214
3725.00,0.0217
3724.00,0.0219
3723.00,0.0220
3722.00,0.0219
3721.00,0.0219
3720.00,0.0219
3719.00,0.0218
3718.00,0.0216
3717.00,0.0215
3716.00,0.0215
3715.00,0.0217
3714.00,0.0218
3713.00,0.0217
3712.00,0.0217
3711.00,0.0219
3710.00,0.0222
3709.00,0.0223
3708.00,0.0221
3707.00,0.0219
3706.00,0.0217
3705.00,0.0217
3704.00,0.0218
3703.00,0.0219
3702.00,0.0219
3701.00,0.0219
3700.00,0.0220
3699.00,0.0220
3698.00,0.0220
3697.00,0.0218
3696.00,0.0218
3695.00,0.0219
3694.00,0.0222
3693.00,0.0224
3692.00,0.0225
3691.00,0.0226
3690.00,0.0227
3689.00,0.0228
3688.00,0.0227
3687.00,0.0226
3686.00,0.0225
3685.00,0.0223
3684.00,0.0220
3683.00,0.0218
3682.00,0.0218
3681.00,0.0217
3680.00,0.0217
3679.00,0.0219
3678.00,0.0223
3677.00,0.0226
3676.00,0.0226
3675.00,0.0225
3674.00,0.0228
3673.00,0.0231
3672.00,0.0231
3671.00,0.0227
3670.00,0.0223
3669.00,0.0223
3668.00,0.0225
3667.00,0.0225
3666.00,0.0223
3665.00,0.0220
3664.00,0.0218
3663.00,0.0217
3662.00,0.0216
3661.00,0.0215
3660.00,0.0216
3659.00,0.0217
3658.00,0.0219
3657.00,0.0219
3656.00,0.0219
3655.00,0.0222
3654.00,0.0227
3653.00,0.0231
3652.00,0.0233
3651.00,0.0230
3650.00,0.0230
3649.00,0.0236
3648.00,0.0242
3647.00,0.0242
3646.00,0.0239
3645.00,0.0235
3644.00,0.0231
3643.00,0.0228
3642.00,0.0226
3641.00,0.0225
3640.00,0.0224
3639.00,0.0224
3638.00,0.0223
3637.00,0.0223
3636.00,0.0224
3635.00,0.0223
3634.00,0.0221
3633.00,0.0221
3632.00,0.0225
3631.00,0.0228
3630.00,0.0229
3629.00,0.0230
3628.00,0.0232
3627.00,0.0235
3626.00,0.0235
3625.00,0.0233
3624.00,0.0230
3623.00,0.0230
3622.00,0.0233
3621.00,0.0236
3620.00,0.0238
3619.00,0.0239
3618.00,0.0241
3617.00,0.0242
3616.00,0.0241
3615.00,0.0238
3614.00,0.0234
3613.00,0.0232
3612.00,0.0232
3611.00,0.0234
3610.00,0.0234
3609.00,0.0234
3608.00,0.0233
3607.00,0.0233
3606.00,0.0234
3605.00,0.0233
3604.00,0.0232
3603.00,0.0231
3602.00,0.0231
3601.00,0.0230
3600.00,0.0231
3599.00,0.0232
3598.00,0.0233
3597.00,0.0234
3596.00,0.0234
3595.00,0.0234
3594.00,0.0234
3593.00,0.0234
3592.00,0.0233
3591.00,0.0234
3590.00,0.0235
3589.00,0.0236
3588.00,0.0238
3587.00,0.0239
3586.00,0.0241
3585.00,0.0241
3584.00,0.0239
3583.00,0.0237
3582.00,0.0236
3581.00,0.0235
3580.00,0.0235
3579.00,0.0235
3578.00,0.0235
3577.00,0.0235
3576.00,0.0234
3575.00,0.0233
3574.00,0.0232
3573.00,0.0233
3572.00,0.0234
3571.00,0.0236
3570.00,0.0239
3569.00,0.0241
3568.00,0.0243
3567.00,0.0245
3566.00,0.0247
3565.00,0.0248
3564.00,0.0246
3563.00,0.0243
3562.00,0.0241
3561.00,0.0239
3560.00,0.0238
3559.00,0.0238
3558.00,0.0237
3557.00,0.0237
3556.00,0.0237
3555.00,0.0237
3554.00,0.0237
3553.00,0.0237
3552.00,0.0238
3551.00,0.0238
3550.00,0.0239
3549.00,0.0240
3548.00,0.0240
3547.00,0.0241
3546.00,0.0242
3545.00,0.0243
3544.00,0.0242
3543.00,0.0241
3542.00,0.0240
3541.00,0.0239
3540.00,0.0238
3539.00,0.0238
3538.00,0.0239
3537.00,0.0239
3536.00,0.0239
3535.00,0.0239
3534.00,0.0239
3533.00,0.0239
3532.00,0.0239
3531.00,0.0239
3530.00,0.0239
3529.00,0.0240
3528.00,0.0240
3527.00,0.0241
3526.00,0.0242
3525.00,0.0243
3524.00,0.0243
3523.00,0.0243
3522.00,0.0243
3521.00,0.0242
3520.00,0.0242
3519.00,0.0241
3518.00,0.0241
3517.00,0.0241
3516.00,0.0241
3515.00,0.0241
3514.00,0.0241
3513.00,0.0241
3512.00,0.0241
3511.00,0.0242
3510.00,0.0243
3509.00,0.0243
3508.00,0.0244
3507.00,0.0244
3506.00,0.0245
3505.00,0.0245
3504.00,0.0244
3503.00,0.0244
3502.00,0.0245
3501.00,0.0245
3500.00,0.0246
3499.00,0.0245
3498.00,0.0245
3497.00,0.0244
3496.00,0.0243
3495.00,0.0243
3494.00,0.0243
3493.00,0.0243
3492.00,0.0243
3491.00,0.0243
3490.00,0.0243
3489.00,0.0243
3488.00,0.0243
3487.00,0.0243
3486.00,0.0244
3485.00,0.0245
3484.00,0.0245
3483.00,0.0245
3482.00,0.0245
3481.00,0.0246
3480.00,0.0246
3479.00,0.0246
3478.00,0.0246
3477.00,0.0246
3476.00,0.0246
3475.00,0.0246
3474.00,0.0246
3473.00,0.0246
3472.00,0.0246
3471.00,0.0246
3470.00,0.0247
3469.00,0.0247
3468.00,0.0247
3467.00,0.0247
3466.00,0.0248
3465.00,0.0248
3464.00,0.0248
3463.00,0.0248
3462.00,0.0248
3461.00,0.0247
3460.00,0.0247
3459.00,0.0247
3458.00,0.0247
3457.00,0.0247
3456.00,0.0247
3455.00,0.0247
3454.00,0.0248
3453.00,0.0248
3452.00,0.0248
3451.00,0.0248
3450.00,0.0249
3449.00,0.0249
3448.00,0.0249
3447.00,0.0250
3446.00,0.0250
3445.00,0.0250
3444.00,0.0250
3443.00,0.0249
3442.00,0.0249
3441.00,0.0248
3440.00,0.0248
3439.00,0.0248
3438.00,0.0248
3437.00,0.0248
3436.00,0.0248
3435.00,0.0249
3434.00,0.0249
3433.00,0.0250
3432.00,0.0250
3431.00,0.0250
3430.00,0.0250
3429.00,0.0249
3428.00,0.0249
3427.00,0.0249
3426.00,0.0250
3425.00,0.0250
3424.00,0.0251
3423.00,0.0251
3422.00,0.0251
3421.00,0.0251
3420.00,0.0251
3419.00,0.0252
3418.00,0.0252
3417.00,0.0252
3416.00,0.0251
3415.00,0.0251
3414.00,0.0251
3413.00,0.0251
3412.00,0.0252
3411.00,0.0252
3410.00,0.0252
3409.00,0.0252
3408.00,0.0252
3407.00,0.0252
3406.00,0.0252
3405.00,0.0253
3404.00,0.0253
3403.00,0.0253
3402.00,0.0253
3401.00,0.0253
3400.00,0.0252
3399.00,0.0252
3398.00,0.0252
3397.00,0.0252
3396.00,0.0252
3395.00,0.0253
3394.00,0.0253
3393.00,0.0254
3392.00,0.0254
3391.00,0.0254
3390.00,0.0254
3389.00,0.0253
3388.00,0.0253
3387.00,0.0254
3386.00,0.0254
3385.00,0.0254
3384.00,0.0254
3383.00,0.0254
3382.00,0.0253
3381.00,0.0253
3380.00,0.0253
3379.00,0.0253
3378.00,0.0253
3377.00,0.0253
3376.00,0.0253
3375.00,0.0253
3374.00,0.0254
3373.00,0.0254
3372.00,0.0254
3371.00,0.0254
3370.00,0.0255
3369.00,0.0255
3368.00,0.0255
3367.00,0.0255
3366.00,0.0256
3365.00,0.0256
3364.00,0.0256
3363.00,0.0257
3362.00,0.0257
3361.00,0.0256
3360.00,0.0256
3359.00,0.0255
3358.00,0.0255
3357.00,0.0255
3356.00,0.0255
3355.00,0.0255
3354.00,0.0255
3353.00,0.0255
3352.00,0.0255
3351.00,0.0255
3350.00,0.0255
3349.00,0.0255
3348.00,0.0255
3347.00,0.0254
3346.00,0.0254
3345.00,0.0255
3344.00,0.0255
3343.00,0.0255
3342.00,0.0255
3341.00,0.0255
3340.00,0.0255
3339.00,0.0256
3338.00,0.0256
3337.00,0.0257
3336.00,0.0257
3335.00,0.0257
3334.00,0.0257
3333.00,0.0257
3332.00,0.0257
3331.00,0.0257
3330.00,0.0257
3329.00,0.0258
3328.00,0.0258
3327.00,0.0258
3326.00,0.0258
3325.00,0.0258
3324.00,0.0258
3323.00,0.0257
3322.00,0.0257
3321.00,0.0257
3320.00,0.0257
3319.00,0.0257
3318.00,0.0257
3317.00,0.0257
3316.00,0.0258
3315.00,0.0257
3314.00,0.0257
3313.00,0.0257
3312.00,0.0257
3311.00,0.0257
3310.00,0.0257
3309.00,0.0258
3308.00,0.0258
3307.00,0.0258
3306.00,0.0259
3305.00,0.0259
3304.00,0.0259
3303.00,0.0259
3302.00,0.0259
3301.00,0.0258
3300.00,0.0258
3299.00,0.0257
3298.00,0.0257
3297.00,0.0257
3296.00,0.0258
3295.00,0.0258
3294.00,0.0258
3293.00,0.0258
3292.00,0.0258
3291.00,0.0258
3290.00,0.0258
3289.00,0.0259
3288.00,0.0259
3287.00,0.0259
3286.00,0.0259
3285.00,0.0259
3284.00,0.0259
3283.00,0.0259
3282.00,0.0259
3281.00,0.0259
3280.00,0.0259
3279.00,0.0259
3278.00,0.0259
3277.00,0.0259
3276.00,0.0259
3275.00,0.0259
3274.00,0.0260
3273.00,0.0260
3272.00,0.0260
3271.00,0.0260
3270.00,0.0260
3269.00,0.0260
3268.00,0.0259
3267.00,0.0259
3266.00,0.0259
3265.00,0.0259
3264.00,0.0259
3263.00,0.0259
3262.00,0.0260
3261.00,0.0260
3260.00,0.0260
3259.00,0.0260
3258.00,0.0260
3257.00,0.0260
3256.00,0.0260
3255.00,0.0260
3254.00,0.0260
3253.00,0.0260
3252.00,0.0259
3251.00,0.0259
3250.00,0.0259
3249.00,0.0259
3248.00,0.0260
3247.00,0.0260
3246.00,0.0261
3245.00,0.0261
3244.00,0.0261
3243.00,0.0261
3242.00,0.0261
3241.00,0.0261
3240.00,0.0261
3239.00,0.0261
3238.00,0.0261
3237.00,0.0261
3236.00,0.0261
3235.00,0.0261
3234.00,0.0261
3233.00,0.0262
3232.00,0.0262
3231.00,0.0263
3230.00,0.0263
3229.00,0.0262
3228.00,0.0262
3227.00,0.0262
3226.00,0.0261
3225.00,0.0261
3224.00,0.0261
3223.00,0.0262
3222.00,0.0262
3221.00,0.0262
3220.00,0.0261
3219.00,0.0261
3218.00,0.0261
3217.00,0.0261
3216.00,0.0261
3215.00,0.0260
3214.00,0.0261
3213.00,0.0261
3212.00,0.0262
3211.00,0.0262
3210.00,0.0262
3209.00,0.0262
3208.00,0.0262
3207.00,0.0262
3206.00,0.0262
3205.00,0.0262
3204.00,0.0262
3203.00,0.0262
3202.00,0.0262
3201.00,0.0262
3200.00,0.0263
3199.00,0.0263
3198.00,0.0264
3197.00,0.0263
3196.00,0.0263
3195.00,0.0263
3194.00,0.0262
3193.00,0.0262
3192.00,0.0261
3191.00,0.0261
3190.00,0.0261
3189.00,0.0261
3188.00,0.0261
3187.00,0.0261
3186.00,0.0261
3185.00,0.0261
3184.00,0.0261
3183.00,0.0261
3182.00,0.0261
3181.00,0.0261
3180.00,0.0261
3179.00,0.0261
3178.00,0.0262
3177.00,0.0262
3176.00,0.0261
3175.00,0.0261
3174.00,0.0261
3173.00,0.0262
3172.00,0.0262
3171.00,0.0262
3170.00,0.0262
3169.00,0.0261
3168.00,0.0261
3167.00,0.0261
3166.00,0.0261
3165.00,0.0261
3164.00,0.0261
3163.00,0.0261
3162.00,0.0261
3161.00,0.0260
3160.00,0.0260
3159.00,0.0260
3158.00,0.0261
3157.00,0.0261
3156.00,0.0261
3155.00,0.0260
3154.00,0.0261
3153.00,0.0261
3152.00,0.0261
3151.00,0.0260
3150.00,0.0260
3149.00,0.0260
3148.00,0.0260
3147.00,0.0260
3146.00,0.0260
3145.00,0.0260
3144.00,0.0260
3143.00,0.0260
3142.00,0.0260
3141.00,0.0260
3140.00,0.0260
3139.00,0.0260
3138.00,0.0259
3137.00,0.0259
3136.00,0.0259
3135.00,0.0259
3134.00,0.0259
3133.00,0.0258
3132.00,0.0258
3131.00,0.0259
3130.00,0.0259
3129.00,0.0260
3128.00,0.0260
3127.00,0.0260
3126.00,0.0260
3125.00,0.0260
3124.00,0.0260
3123.00,0.0259
3122.00,0.0259
3121.00,0.0259
3120.00,0.0259
3119.00,0.0259
3118.00,0.0259
3117.00,0.0259
3116.00,0.0259
3115.00,0.0260
3114.00,0.0260
3113.00,0.0260
3112.00,0.0260
3111.00,0.0259
3110.00,0.0259
3109.00,0.0258
3108.00,0.0258
3107.00,0.0258
3106.00,0.0258
3105.00,0.0259
3104.00,0.0259
3103.00,0.0259
3102.00,0.0259
3101.00,0.0258
3100.00,0.0258
3099.00,0.0258
3098.00,0.0259
3097.00,0.0259
3096.00,0.0259
3095.00,0.0259
3094.00,0.0259
3093.00,0.0259
3092.00,0.0259
3091.00,0.0259
3090.00,0.0258
3089.00,0.0258
3088.00,0.0258
3087.00,0.0258
3086.00,0.0258
3085.00,0.0258
3084.00,0.0258
3083.00,0.0258
3082.00,0.0258
3081.00,0.0258
3080.00,0.0258
3079.00,0.0258
3078.00,0.0258
3077.00,0.0258
3076.00,0.0258
3075.00,0.0257
3074.00,0.0257
3073.00,0.0257
3072.00,0.0258
3071.00,0.0258
3070.00,0.0258
3069.00,0.0257
3068.00,0.0257
3067.00,0.0257
3066.00,0.0257
3065.00,0.0257
3064.00,0.0258
3063.00,0.0258
3062.00,0.0257
3061.00,0.0257
3060.00,0.0257
3059.00,0.0257
3058.00,0.0257
3057.00,0.0257
3056.00,0.0258
3055.00,0.0258
3054.00,0.0258
3053.00,0.0258
3052.00,0.0257
3051.00,0.0257
3050.00,0.0257
3049.00,0.0256
3048.00,0.0256
3047.00,0.0256
3046.00,0.0256
3045.00,0.0256
3044.00,0.0257
3043.00,0.0256
3042.00,0.0256
3041.00,0.0256
3040.00,0.0256
3039.00,0.0256
3038.00,0.0256
3037.00,0.0256
3036.00,0.0256
3035.00,0.0256
3034.00,0.0256
3033.00,0.0256
3032.00,0.0256
3031.00,0.0256
3030.00,0.0256
3029.00,0.0255
3028.00,0.0255
3027.00,0.0254
3026.00,0.0253
3025.00,0.0253
3024.00,0.0253
3023.00,0.0253
3022.00,0.0254
3021.00,0.0254
3020.00,0.0254
3019.00,0.0253
3018.00,0.0253
3017.00,0.0253
3016.00,0.0253
3015.00,0.0253
3014.00,0.0253
3013.00,0.0253
3012.00,0.0253
3011.00,0.0253
3010.00,0.0253
3009.00,0.0253
3008.00,0.0252
3007.00,0.0251
3006.00,0.0251
3005.00,0.0250
3004.00,0.0249
3003.00,0.0249
3002.00,0.0248
3001.00,0.0248
3000.00,0.0247
2999.00,0.0247
2998.00,0.0246
2997.00,0.0246
2996.00,0.0246
2995.00,0.0245
2994.00,0.0245
2993.00,0.0245
2992.00,0.0245
2991.00,0.0244
2990.00,0.0243
2989.00,0.0243
2988.00,0.0242
2987.00,0.0242
2986.00,0.0241
2985.00,0.0241
2984.00,0.0239
2983.00,0.0238
2982.00,0.0237
2981.00,0.0237
2980.00,0.0237
2979.00,0.0238
2978.00,0.0239
2977.00,0.0240
2976.00,0.0240
2975.00,0.0240
2974.00,0.0239
2973.00,0.0239
2972.00,0.0238
2971.00,0.0238
2970.00,0.0237
2969.00,0.0237
2968.00,0.0237
2967.00,0.0237
2966.00,0.0237
2965.00,0.0237
2964.00,0.0237
2963.00,0.0236
2962.00,0.0236
2961.00,0.0237
2960.00,0.0237
2959.00,0.0237
2958.00,0.0237
2957.00,0.0237
2956.00,0.0236
2955.00,0.0237
2954.00,0.0237
2953.00,0.0238
2952.00,0.0239
2951.00,0.0239
2950.00,0.0239
2949.00,0.0238
2948.00,0.0238
2947.00,0.0238
2946.00,0.0239
2945.00,0.0239
2944.00,0.0239
2943.00,0.0239
2942.00,0.0239
2941.00,0.0238
2940.00,0.0238
2939.00,0.0237
2938.00,0.0237
2937.00,0.0236
2936.00,0.0236
2935.00,0.0235
2934.00,0.0234
2933.00,0.0234
2932.00,0.0233
2931.00,0.0232
2930.00,0.0232
2929.00,0.0231
2928.00,0.0230
2927.00,0.0229
2926.00,0.0229
2925.00,0.0229
2924.00,0.0229
2923.00,0.0229
2922.00,0.0230
2921.00,0.0230
2920.00,0.0230
2919.00,0.0229
2918.00,0.0228
2917.00,0.0228
2916.00,0.0229
2915.00,0.0230
2914.00,0.0232
2913.00,0.0233
2912.00,0.0234
2911.00,0.0234
2910.00,0.0235
2909.00,0.0235
2908.00,0.0236
2907.00,0.0236
2906.00,0.0236
2905.00,0.0236
2904.00,0.0236
2903.00,0.0236
2902.00,0.0236
2901.00,0.0237
2900.00,0.0237
2899.00,0.0237
2898.00,0.0237
2897.00,0.0237
2896.00,0.0237
2895.00,0.0237
2894.00,0.0237
2893.00,0.0237
2892.00,0.0237
2891.00,0.0238
2890.00,0.0238
2889.00,0.0237
2888.00,0.0237
2887.00,0.0238
2886.00,0.0238
2885.00,0.0238
2884.00,0.0239
2883.00,0.0239
2882.00,0.0239
2881.00,0.0239
2880.00,0.0239
2879.00,0.0239
2878.00,0.0239
2877.00,0.0238
2876.00,0.0238
2875.00,0.0238
2874.00,0.0237
2873.00,0.0237
2872.00,0.0236
2871.00,0.0236
2870.00,0.0236
2869.00,0.0236
2868.00,0.0236
2867.00,0.0236
2866.00,0.0235
2865.00,0.0235
2864.00,0.0235
2863.00,0.0236
2862.00,0.0236
2861.00,0.0236
2860.00,0.0235
2859.00,0.0235
2858.00,0.0235
2857.00,0.0235
2856.00,0.0234
2855.00,0.0233
2854.00,0.0233
2853.00,0.0233
2852.00,0.0233
2851.00,0.0233
2850.00,0.0233
2849.00,0.0233
2848.00,0.0234
2847.00,0.0234
2846.00,0.0235
2845.00,0.0235
2844.00,0.0236
2843.00,0.0237
2842.00,0.0238
2841.00,0.0238
2840.00,0.0239
2839.00,0.0239
2838.00,0.0240
2837.00,0.0240
2836.00,0.0240
2835.00,0.0240
2834.00,0.0239
2833.00,0.0239
2832.00,0.0240
2831.00,0.0240
2830.00,0.0240
2829.00,0.0240
2828.00,0.0240
2827.00,0.0240
2826.00,0.0240
2825.00,0.0240
2824.00,0.0240
2823.00,0.0240
2822.00,0.0239
2821.00,0.0239
2820.00,0.0239
2819.00,0.0239
2818.00,0.0239
2817.00,0.0239
2816.00,0.0239
2815.00,0.0239
2814.00,0.0239
2813.00,0.0239
2812.00,0.0238
2811.00,0.0238
2810.00,0.0238
2809.00,0.0238
2808.00,0.0238
2807.00,0.0238
2806.00,0.0238
2805.00,0.0239
2804.00,0.0239
2803.00,0.0239
2802.00,0.0239
2801.00,0.0238
2800.00,0.0238
2799.00,0.0238
2798.00,0.0238
2797.00,0.0238
2796.00,0.0238
2795.00,0.0238
2794.00,0.0238
2793.00,0.0237
2792.00,0.0237
2791.00,0.0237
2790.00,0.0238
2789.00,0.0238
2788.00,0.0238
2787.00,0.0238
2786.00,0.0237
2785.00,0.0237
2784.00,0.0237
2783.00,0.0237
2782.00,0.0237
2781.00,0.0237
2780.00,0.0237
2779.00,0.0237
2778.00,0.0237
2777.00,0.0237
2776.00,0.0238
2775.00,0.0238
2774.00,0.0238
2773.00,0.0237
2772.00,0.0237
2771.00,0.0237
2770.00,0.0237
2769.00,0.0237
2768.00,0.0236
2767.00,0.0236
2766.00,0.0236
2765.00,0.0236
2764.00,0.0236
2763.00,0.0237
2762.00,0.0237
2761.00,0.0237
2760.00,0.0236
2759.00,0.0236
2758.00,0.0236
2757.00,0.0236
2756.00,0.0236
2755.00,0.0237
2754.00,0.0237
2753.00,0.0237
2752.00,0.0237
2751.00,0.0236
2750.00,0.0236
2749.00,0.0237
2748.00,0.0237
2747.00,0.0237
2746.00,0.0237
2745.00,0.0236
2744.00,0.0236
2743.00,0.0236
2742.00,0.0236
2741.00,0.0236
2740.00,0.0236
2739.00,0.0236
2738.00,0.0236
2737.00,0.0236
2736.00,0.0235
2735.00,0.0235
2734.00,0.0235
2733.00,0.0235
2732.00,0.0235
2731.00,0.0235
2730.00,0.0235
2729.00,0.0235
2728.00,0.0235
2727.00,0.0236
2726.00,0.0236
2725.00,0.0235
2724.00,0.0235
2723.00,0.0235
2722.00,0.0235
2721.00,0.0235
2720.00,0.0235
2719.00,0.0235
2718.00,0.0235
2717.00,0.0235
2716.00,0.0235
2715.00,0.0235
2714.00,0.0235
2713.00,0.0235
2712.00,0.0235
2711.00,0.0236
2710.00,0.0236
2709.00,0.0236
2708.00,0.0236
2707.00,0.0235
2706.00,0.0235
2705.00,0.0234
2704.00,0.0234
2703.00,0.0234
2702.00,0.0234
2701.00,0.0234
2700.00,0.0234
2699.00,0.0234
2698.00,0.0234
2697.00,0.0234
2696.00,0.0234
2695.00,0.0234
2694.00,0.0234
2693.00,0.0234
2692.00,0.0234
2691.00,0.0234
2690.00,0.0234
2689.00,0.0234
2688.00,0.0234
2687.00,0.0234
2686.00,0.0234
2685.00,0.0234
2684.00,0.0234
2683.00,0.0234
2682.00,0.0234
2681.00,0.0234
2680.00,0.0234
2679.00,0.0234
2678.00,0.0234
2677.00,0.0235
2676.00,0.0234
2675.00,0.0234
2674.00,0.0234
2673.00,0.0234
2672.00,0.0234
2671.00,0.0233
2670.00,0.0233
2669.00,0.0233
2668.00,0.0233
2667.00,0.0233
2666.00,0.0233
2665.00,0.0233
2664.00,0.0233
2663.00,0.0234
2662.00,0.0234
2661.00,0.0234
2660.00,0.0234
2659.00,0.0234
2658.00,0.0234
2657.00,0.0234
2656.00,0.0235
2655.00,0.0235
2654.00,0.0235
2653.00,0.0235
2652.00,0.0235
2651.00,0.0235
2650.00,0.0235
2649.00,0.0235
2648.00,0.0236
2647.00,0.0236
2646.00,0.0236
2645.00,0.0236
2644.00,0.0236
2643.00,0.0237
2642.00,0.0237
2641.00,0.0237
2640.00,0.0237
2639.00,0.0237
2638.00,0.0237
2637.00,0.0237
2636.00,0.0237
2635.00,0.0237
2634.00,0.0236
2633.00,0.0236
2632.00,0.0236
2631.00,0.0236
2630.00,0.0236
2629.00,0.0236
2628.00,0.0236
2627.00,0.0236
2626.00,0.0236
2625.00,0.0236
2624.00,0.0236
2623.00,0.0236
2622.00,0.0236
2621.00,0.0236
2620.00,0.0236
2619.00,0.0236
2618.00,0.0237
2617.00,0.0238
2616.00,0.0238
2615.00,0.0238
2614.00,0.0238
2613.00,0.0238
2612.00,0.0238
2611.00,0.0237
2610.00,0.0237
2609.00,0.0237
2608.00,0.0237
2607.00,0.0238
2606.00,0.0238
2605.00,0.0238
2604.00,0.0238
2603.00,0.0238
2602.00,0.0238
2601.00,0.0238
2600.00,0.0238
2599.00,0.0238
2598.00,0.0238
2597.00,0.0238
2596.00,0.0238
2595.00,0.0238
2594.00,0.0238
2593.00,0.0238
2592.00,0.0238
2591.00,0.0238
2590.00,0.0238
2589.00,0.0238
2588.00,0.0238
2587.00,0.0237
2586.00,0.0237
2585.00,0.0237
2584.00,0.0238
2583.00,0.0238
2582.00,0.0238
2581.00,0.0238
2580.00,0.0237
2579.00,0.0237
2578.00,0.0237
2577.00,0.0238
2576.00,0.0238
2575.00,0.0238
2574.00,0.0238
2573.00,0.0238
2572.00,0.0238
2571.00,0.0237
2570.00,0.0237
2569.00,0.0237
2568.00,0.0237
2567.00,0.0237
2566.00,0.0238
2565.00,0.0239
2564.00,0.0239
2563.00,0.0239
2562.00,0.0238
2561.00,0.0238
2560.00,0.0237
2559.00,0.0237
2558.00,0.0237
2557.00,0.0237
2556.00,0.0237
2555.00,0.0237
2554.00,0.0238
2553.00,0.0238
2552.00,0.0239
2551.00,0.0239
2550.00,0.0239
2549.00,0.0239
2548.00,0.0239
2547.00,0.0239
2546.00,0.0238
2545.00,0.0238
2544.00,0.0238
2543.00,0.0238
2542.00,0.0239
2541.00,0.0239
2540.00,0.0240
2539.00,0.0240
2538.00,0.0240
2537.00,0.0240
2536.00,0.0240
2535.00,0.0240
2534.00,0.0240
2533.00,0.0240
2532.00,0.0239
2531.00,0.0239
2530.00,0.0239
2529.00,0.0239
2528.00,0.0239
2527.00,0.0239
2526.00,0.0239
2525.00,0.0240
2524.00,0.0240
2523.00,0.0240
2522.00,0.0240
2521.00,0.0240
2520.00,0.0240
2519.00,0.0239
2518.00,0.0239
2517.00,0.0238
2516.00,0.0237
2515.00,0.0237
2514.00,0.0238
2513.00,0.0238
2512.00,0.0239
2511.00,0.0239
2510.00,0.0239
2509.00,0.0239
2508.00,0.0239
2507.00,0.0239
2506.00,0.0238
2505.00,0.0238
2504.00,0.0238
2503.00,0.0238
2502.00,0.0239
2501.00,0.0239
2500.00,0.0239
2499.00,0.0239
2498.00,0.0239
2497.00,0.0239
2496.00,0.0239
2495.00,0.0238
2494.00,0.0238
2493.00,0.0238
2492.00,0.0238
2491.00,0.0239
2490.00,0.0239
2489.00,0.0239
2488.00,0.0238
2487.00,0.0238
2486.00,0.0237
2485.00,0.0237
2484.00,0.0238
2483.00,0.0238
2482.00,0.0239
2481.00,0.0239
2480.00,0.0240
2479.00,0.0240
2478.00,0.0240
2477.00,0.0239
2476.00,0.0239
2475.00,0.0239
2474.00,0.0238
2473.00,0.0238
2472.00,0.0238
2471.00,0.0238
2470.00,0.0238
2469.00,0.0238
2468.00,0.0237
2467.00,0.0237
2466.00,0.0237
2465.00,0.0237
2464.00,0.0237
2463.00,0.0238
2462.00,0.0238
2461.00,0.0238
2460.00,0.0239
2459.00,0.0239
2458.00,0.0240
2457.00,0.0240
2456.00,0.0239
2455.00,0.0238
2454.00,0.0238
2453.00,0.0238
2452.00,0.0238
2451.00,0.0239
2450.00,0.0239
2449.00,0.0239
2448.00,0.0238
2447.00,0.0238
2446.00,0.0238
2445.00,0.0238
2444.00,0.0238
2443.00,0.0238
2442.00,0.0238
2441.00,0.0238
2440.00,0.0238
2439.00,0.0237
2438.00,0.0237
2437.00,0.0237
2436.00,0.0236
2435.00,0.0236
2434.00,0.0236
2433.00,0.0237
2432.00,0.0237
2431.00,0.0237
2430.00,0.0237
2429.00,0.0237
2428.00,0.0237
2427.00,0.0237
2426.00,0.0237
2425.00,0.0237
2424.00,0.0237
2423.00,0.0237
2422.00,0.0236
2421.00,0.0236
2420.00,0.0236
2419.00,0.0237
2418.00,0.0237
2417.00,0.0237
2416.00,0.0237
2415.00,0.0237
2414.00,0.0237
2413.00,0.0237
2412.00,0.0237
2411.00,0.0238
2410.00,0.0237
2409.00,0.0237
2408.00,0.0236
2407.00,0.0236
2406.00,0.0236
2405.00,0.0237
2404.00,0.0237
2403.00,0.0237
2402.00,0.0236
2401.00,0.0236
2400.00,0.0235
2399.00,0.0235
2398.00,0.0235
2397.00,0.0235
2396.00,0.0235
2395.00,0.0235
2394.00,0.0235
2393.00,0.0235
2392.00,0.0236
2391.00,0.0236
2390.00,0.0235
2389.00,0.0235
2388.00,0.0234
2387.00,0.0234
2386.00,0.0233
2385.00,0.0231
2384.00,0.0230
2383.00,0.0227
2382.00,0.0225
2381.00,0.0223
2380.00,0.0220
2379.00,0.0218
2378.00,0.0217
2377.00,0.0217
2376.00,0.0218
2375.00,0.0221
2374.00,0.0223
2373.00,0.0225
2372.00,0.0227
2371.00,0.0228
2370.00,0.0228
2369.00,0.0227
2368.00,0.0227
2367.00,0.0226
2366.00,0.0225
2365.00,0.0224
2364.00,0.0223
2363.00,0.0224
2362.00,0.0226
2361.00,0.0229
2360.00,0.0232
2359.00,0.0233
2358.00,0.0235
2357.00,0.0237
2356.00,0.0240
2355.00,0.0242
2354.00,0.0244
2353.00,0.0243
2352.00,0.0242
2351.00,0.0240
2350.00,0.0236
2349.00,0.0230
2348.00,0.0222
2347.00,0.0215
2346.00,0.0213
2345.00,0.0217
2344.00,0.0224
2343.00,0.0229
2342.00,0.0232
2341.00,0.0232
2340.00,0.0233
2339.00,0.0233
2338.00,0.0233
2337.00,0.0234
2336.00,0.0233
2335.00,0.0233
2334.00,0.0233
2333.00,0.0233
2332.00,0.0233
2331.00,0.0234
2330.00,0.0236
2329.00,0.0238
2328.00,0.0241
2327.00,0.0243
2326.00,0.0243
2325.00,0.0242
2324.00,0.0241
2323.00,0.0240
2322.00,0.0239
2321.00,0.0239
2320.00,0.0240
2319.00,0.0240
2318.00,0.0241
2317.00,0.0241
2316.00,0.0240
2315.00,0.0238
2314.00,0.0235
2313.00,0.0233
2312.00,0.0232
2311.00,0.0231
2310.00,0.0230
2309.00,0.0229
2308.00,0.0229
2307.00,0.0230
2306.00,0.0230
2305.00,0.0231
2304.00,0.0231
2303.00,0.0231
2302.00,0.0231
2301.00,0.0231
2300.00,0.0231
2299.00,0.0232
2298.00,0.0232
2297.00,0.0232
2296.00,0.0232
2295.00,0.0232
2294.00,0.0232
2293.00,0.0232
2292.00,0.0232
2291.00,0.0233
2290.00,0.0233
2289.00,0.0234
2288.00,0.0234
2287.00,0.0235
2286.00,0.0235
2285.00,0.0235
2284.00,0.0235
2283.00,0.0234
2282.00,0.0234
2281.00,0.0234
2280.00,0.0234
2279.00,0.0235
2278.00,0.0235
2277.00,0.0234
2276.00,0.0234
2275.00,0.0234
2274.00,0.0234
2273.00,0.0235
2272.00,0.0234
2271.00,0.0234
2270.00,0.0232
2269.00,0.0232
2268.00,0.0232
2267.00,0.0232
2266.00,0.0233
2265.00,0.0234
2264.00,0.0234
2263.00,0.0234
2262.00,0.0234
2261.00,0.0235
2260.00,0.0236
2259.00,0.0236
2258.00,0.0236
2257.00,0.0235
2256.00,0.0234
2255.00,0.0233
2254.00,0.0232
2253.00,0.0231
2252.00,0.0231
2251.00,0.0232
2250.00,0.0233
2249.00,0.0233
2248.00,0.0233
2247.00,0.0233
2246.00,0.0232
2245.00,0.0232
2244.00,0.0232
2243.00,0.0233
2242.00,0.0233
2241.00,0.0233
2240.00,0.0233
2239.00,0.0233
2238.00,0.0233
2237.00,0.0233
2236.00,0.0233
2235.00,0.0234
2234.00,0.0234
2233.00,0.0233
2232.00,0.0233
2231.00,0.0233
2230.00,0.0233
2229.00,0.0234
2228.00,0.0235
2227.00,0.0235
2226.00,0.0235
2225.00,0.0234
2224.00,0.0233
2223.00,0.0233
2222.00,0.0233
2221.00,0.0234
2220.00,0.0234
2219.00,0.0234
2218.00,0.0234
2217.00,0.0235
2216.00,0.0236
2215.00,0.0237
2214.00,0.0237
2213.00,0.0237
2212.00,0.0236
2211.00,0.0235
2210.00,0.0234
2209.00,0.0234
2208.00,0.0233
2207.00,0.0234
2206.00,0.0235
2205.00,0.0236
2204.00,0.0237
2203.00,0.0237
2202.00,0.0237
2201.00,0.0236
2200.00,0.0235
2199.00,0.0234
2198.00,0.0234
2197.00,0.0235
2196.00,0.0236
2195.00,0.0237
2194.00,0.0236
2193.00,0.0235
2192.00,0.0234
2191.00,0.0234
2190.00,0.0235
2189.00,0.0236
2188.00,0.0237
2187.00,0.0236
2186.00,0.0235
2185.00,0.0234
2184.00,0.0234
2183.00,0.0234
2182.00,0.0235
2181.00,0.0236
2180.00,0.0237
2179.00,0.0238
2178.00,0.0237
2177.00,0.0237
2176.00,0.0236
2175.00,0.0236
2174.00,0.0236
2173.00,0.0238
2172.00,0.0238
2171.00,0.0237
2170.00,0.0235
2169.00,0.0234
2168.00,0.0233
2167.00,0.0233
2166.00,0.0234
2165.00,0.0235
2164.00,0.0236
2163.00,0.0238
2162.00,0.0238
2161.00,0.0237
2160.00,0.0234
2159.00,0.0231
2158.00,0.0228
2157.00,0.0227
2156.00,0.0228
2155.00,0.0229
2154.00,0.0230
2153.00,0.0231
2152.00,0.0230
2151.00,0.0230
2150.00,0.0229
2149.00,0.0229
2148.00,0.0229
2147.00,0.0228
2146.00,0.0227
2145.00,0.0226
2144.00,0.0226
2143.00,0.0227
2142.00,0.0227
2141.00,0.0227
2140.00,0.0227
2139.00,0.0226
2138.00,0.0227
2137.00,0.0227
2136.00,0.0227
2135.00,0.0226
2134.00,0.0225
2133.00,0.0225
2132.00,0.0225
2131.00,0.0225
2130.00,0.0225
2129.00,0.0225
2128.00,0.0225
2127.00,0.0224
2126.00,0.0224
2125.00,0.0224
2124.00,0.0224
2123.00,0.0225
2122.00,0.0225
2121.00,0.0227
2120.00,0.0228
2119.00,0.0228
2118.00,0.0228
2117.00,0.0228
2116.00,0.0227
2115.00,0.0227
2114.00,0.0226
2113.00,0.0226
2112.00,0.0225
2111.00,0.0225
2110.00,0.0225
2109.00,0.0225
2108.00,0.0226
2107.00,0.0226
2106.00,0.0226
2105.00,0.0225
2104.00,0.0224
2103.00,0.0224
2102.00,0.0224
2101.00,0.0225
2100.00,0.0225
2099.00,0.0226
2098.00,0.0227
2097.00,0.0227
2096.00,0.0226
2095.00,0.0225
2094.00,0.0225
2093.00,0.0226
2092.00,0.0228
2091.00,0.0229
2090.00,0.0229
2089.00,0.0229
2088.00,0.0227
2087.00,0.0226
2086.00,0.0225
2085.00,0.0225
2084.00,0.0224
2083.00,0.0224
2082.00,0.0224
2081.00,0.0224
2080.00,0.0224
2079.00,0.0224
2078.00,0.0224
2077.00,0.0225
2076.00,0.0226
2075.00,0.0226
2074.00,0.0226
2073.00,0.0224
2072.00,0.0224
2071.00,0.0224
2070.00,0.0226
2069.00,0.0226
2068.00,0.0226
2067.00,0.0226
2066.00,0.0226
2065.00,0.0227
2064.00,0.0227
2063.00,0.0226
2062.00,0.0225
2061.00,0.0224
2060.00,0.0223
2059.00,0.0223
2058.00,0.0223
2057.00,0.0225
2056.00,0.0226
2055.00,0.0226
2054.00,0.0227
2053.00,0.0226
2052.00,0.0226
2051.00,0.0226
2050.00,0.0227
2049.00,0.0228
2048.00,0.0228
2047.00,0.0228
2046.00,0.0228
2045.00,0.0228
2044.00,0.0227
2043.00,0.0227
2042.00,0.0228
2041.00,0.0229
2040.00,0.0230
2039.00,0.0230
2038.00,0.0228
2037.00,0.0228
2036.00,0.0227
2035.00,0.0225
2034.00,0.0223
2033.00,0.0222
2032.00,0.0221
2031.00,0.0221
2030.00,0.0223
2029.00,0.0225
2028.00,0.0225
2027.00,0.0225
2026.00,0.0224
2025.00,0.0223
2024.00,0.0222
2023.00,0.0221
2022.00,0.0222
2021.00,0.0223
2020.00,0.0224
2019.00,0.0224
2018.00,0.0224
2017.00,0.0224
2016.00,0.0224
2015.00,0.0225
2014.00,0.0225
2013.00,0.0225
2012.00,0.0224
2011.00,0.0221
2010.00,0.0220
2009.00,0.0219
2008.00,0.0218
2007.00,0.0218
2006.00,0.0218
2005.00,0.0219
2004.00,0.0221
2003.00,0.0223
2002.00,0.0225
2001.00,0.0225
2000.00,0.0225
1999.00,0.0224
1998.00,0.0224
1997.00,0.0223
1996.00,0.0223
1995.00,0.0224
1994.00,0.0225
1993.00,0.0226
1992.00,0.0226
1991.00,0.0224
1990.00,0.0223
1989.00,0.0222
1988.00,0.0221
1987.00,0.0221
1986.00,0.0221
1985.00,0.0222
1984.00,0.0223
1983.00,0.0224
1982.00,0.0226
1981.00,0.0226
1980.00,0.0225
1979.00,0.0224
1978.00,0.0223
1977.00,0.0224
1976.00,0.0226
1975.00,0.0227
1974.00,0.0226
1973.00,0.0225
1972.00,0.0224
1971.00,0.0224
1970.00,0.0225
1969.00,0.0226
1968.00,0.0227
1967.00,0.0226
1966.00,0.0225
1965.00,0.0224
1964.00,0.0224
1963.00,0.0225
1962.00,0.0225
1961.00,0.0225
1960.00,0.0224
1959.00,0.0223
1958.00,0.0222
1957.00,0.0220
1956.00,0.0218
1955.00,0.0216
1954.00,0.0215
1953.00,0.0216
1952.00,0.0216
1951.00,0.0216
1950.00,0.0216
1949.00,0.0216
1948.00,0.0216
1947.00,0.0217
1946.00,0.0218
1945.00,0.0218
1944.00,0.0218
1943.00,0.0217
1942.00,0.0216
1941.00,0.0216
1940.00,0.0215
1939.00,0.0215
1938.00,0.0214
1937.00,0.0214
1936.00,0.0214
1935.00,0.0215
1934.00,0.0215
1933.00,0.0215
1932.00,0.0215
1931.00,0.0214
1930.00,0.0214
1929.00,0.0213
1928.00,0.0213
1927.00,0.0213
1926.00,0.0214
1925.00,0.0216
1924.00,0.0218
1923.00,0.0217
1922.00,0.0216
1921.00,0.0215
1920.00,0.0214
1919.00,0.0213
1918.00,0.0212
1917.00,0.0211
1916.00,0.0210
1915.00,0.0209
1914.00,0.0209
1913.00,0.0209
1912.00,0.0210
1911.00,0.0211
1910.00,0.0211
1909.00,0.0210
1908.00,0.0210
1907.00,0.0209
1906.00,0.0208
1905.00,0.0208
1904.00,0.0208
1903.00,0.0208
1902.00,0.0208
1901.00,0.0207
1900.00,0.0207
1899.00,0.0206
1898.00,0.0206
1897.00,0.0206
1896.00,0.0206
1895.00,0.0206
1894.00,0.0205
1893.00,0.0205
1892.00,0.0206
1891.00,0.0205
1890.00,0.0204
1889.00,0.0204
1888.00,0.0203
1887.00,0.0202
1886.00,0.0202
1885.00,0.0202
1884.00,0.0202
1883.00,0.0202
1882.00,0.0203
1881.00,0.0203
1880.00,0.0203
1879.00,0.0202
1878.00,0.0201
1877.00,0.0201
1876.00,0.0200
1875.00,0.0199
1874.00,0.0199
1873.00,0.0199
1872.00,0.0201
1871.00,0.0201
1870.00,0.0199
1869.00,0.0198
1868.00,0.0197
1867.00,0.0197
1866.00,0.0198
1865.00,0.0198
1864.00,0.0198
1863.00,0.0197
1862.00,0.0196
1861.00,0.0196
1860.00,0.0196
1859.00,0.0195
1858.00,0.0195
1857.00,0.0195
1856.00,0.0196
1855.00,0.0196
1854.00,0.0196
1853.00,0.0195
1852.00,0.0194
1851.00,0.0193
1850.00,0.0193
1849.00,0.0193
1848.00,0.0193
1847.00,0.0193
1846.00,0.0192
1845.00,0.0191
1844.00,0.0189
1843.00,0.0188
1842.00,0.0189
1841.00,0.0190
1840.00,0.0191
1839.00,0.0190
1838.00,0.0189
1837.00,0.0189
1836.00,0.0189
1835.00,0.0188
1834.00,0.0189
1833.00,0.0190
1832.00,0.0192
1831.00,0.0192
1830.00,0.0190
1829.00,0.0189
1828.00,0.0188
1827.00,0.0188
1826.00,0.0188
1825.00,0.0187
1824.00,0.0186
1823.00,0.0185
1822.00,0.0185
1821.00,0.0184
1820.00,0.0184
1819.00,0.0183
1818.00,0.0182
1817.00,0.0182
1816.00,0.0182
1815.00,0.0182
1814.00,0.0182
1813.00,0.0182
1812.00,0.0181
1811.00,0.0180
1810.00,0.0179
1809.00,0.0178
1808.00,0.0178
1807.00,0.0178
1806.00,0.0178
1805.00,0.0179
1804.00,0.0181
1803.00,0.0181
1802.00,0.0181
1801.00,0.0180
1800.00,0.0179
1799.00,0.0178
1798.00,0.0177
1797.00,0.0177
1796.00,0.0178
1795.00,0.0178
1794.00,0.0177
1793.00,0.0176
1792.00,0.0175
1791.00,0.0175
1790.00,0.0175
1789.00,0.0176
1788.00,0.0176
1787.00,0.0175
1786.00,0.0174
1785.00,0.0175
1784.00,0.0176
1783.00,0.0178
1782.00,0.0179
1781.00,0.0179
1780.00,0.0179
1779.00,0.0178
1778.00,0.0179
1777.00,0.0180
1776.00,0.0181
1775.00,0.0183
1774.00,0.0183
1773.00,0.0182
1772.00,0.0181
1771.00,0.0181
1770.00,0.0182
1769.00,0.0182
1768.00,0.0182
1767.00,0.0182
1766.00,0.0183
1765.00,0.0185
1764.00,0.0186
1763.00,0.0187
1762.00,0.0186
1761.00,0.0186
1760.00,0.0187
1759.00,0.0188
1758.00,0.0188
1757.00,0.0187
1756.00,0.0186
1755.00,0.0186
1754.00,0.0187
1753.00,0.0187
1752.00,0.0187
1751.00,0.0187
1750.00,0.0189
1749.00,0.0191
1748.00,0.0192
1747.00,0.0193
1746.00,0.0195
1745.00,0.0196
1744.00,0.0197
1743.00,0.0198
1742.00,0.0198
1741.00,0.0198
1740.00,0.0197
1739.00,0.0197
1738.00,0.0197
1737.00,0.0199
1736.00,0.0200
1735.00,0.0199
1734.00,0.0199
1733.00,0.0202
1732.00,0.0206
1731.00,0.0209
1730.00,0.0211
1729.00,0.0211
1728.00,0.0212
1727.00,0.0212
1726.00,0.0214
1725.00,0.0215
1724.00,0.0215
1723.00,0.0216
1722.00,0.0217
1721.00,0.0219
1720.00,0.0222
1719.00,0.0221
1718.00,0.0218
1717.00,0.0218
1716.00,0.0220
1715.00,0.0222
1714.00,0.0223
1713.00,0.0225
1712.00,0.0225
1711.00,0.0225
1710.00,0.0225
1709.00,0.0226
1708.00,0.0228
1707.00,0.0229
1706.00,0.0229
1705.00,0.0230
1704.00,0.0230
1703.00,0.0230
1702.00,0.0231
1701.00,0.0230
1700.00,0.0227
1699.00,0.0225
1698.00,0.0225
1697.00,0.0227
1696.00,0.0228
1695.00,0.0227
1694.00,0.0226
1693.00,0.0227
1692.00,0.0228
1691.00,0.0229
1690.00,0.0228
1689.00,0.0228
1688.00,0.0228
1687.00,0.0230
1686.00,0.0231
1685.00,0.0230
1684.00,0.0229
1683.00,0.0230
1682.00,0.0230
1681.00,0.0230
1680.00,0.0230
1679.00,0.0229
1678.00,0.0229
1677.00,0.0228
1676.00,0.0227
1675.00,0.0227
1674.00,0.0228
1673.00,0.0229
1672.00,0.0230
1671.00,0.0231
1670.00,0.0231
1669.00,0.0231
1668.00,0.0232
1667.00,0.0232
1666.00,0.0232
1665.00,0.0233
1664.00,0.0232
1663.00,0.0232
1662.00,0.0232
1661.00,0.0233
1660.00,0.0233
1659.00,0.0234
1658.00,0.0234
1657.00,0.0235
1656.00,0.0237
1655.00,0.0241
1654.00,0.0241
1653.00,0.0242
1652.00,0.0241
1651.00,0.0240
1650.00,0.0241
1649.00,0.0242
1648.00,0.0241
1647.00,0.0240
1646.00,0.0242
1645.00,0.0244
1644.00,0.0245
1643.00,0.0246
1642.00,0.0246
1641.00,0.0247
1640.00,0.0248
1639.00,0.0248
1638.00,0.0249
1637.00,0.0250
1636.00,0.0252
1635.00,0.0255
1634.00,0.0256
1633.00,0.0257
1632.00,0.0257
1631.00,0.0259
1630.00,0.0261
1629.00,0.0263
1628.00,0.0264
1627.00,0.0265
1626.00,0.0266
1625.00,0.0267
1624.00,0.0268
1623.00,0.0269
1622.00,0.0270
1621.00,0.0270
1620.00,0.0270
1619.00,0.0271
1618.00,0.0271
1617.00,0.0272
1616.00,0.0274
1615.00,0.0275
1614.00,0.0277
1613.00,0.0278
1612.00,0.0278
1611.00,0.0279
1610.00,0.0280
1609.00,0.0282
1608.00,0.0283
1607.00,0.0284
1606.00,0.0285
1605.00,0.0286
1604.00,0.0286
1603.00,0.0287
1602.00,0.0289
1601.00,0.0290
1600.00,0.0290
1599.00,0.0291
1598.00,0.0292
1597.00,0.0293
1596.00,0.0293
1595.00,0.0294
1594.00,0.0295
1593.00,0.0295
1592.00,0.0295
1591.00,0.0296
1590.00,0.0296
1589.00,0.0297
1588.00,0.0297
1587.00,0.0297
1586.00,0.0298
1585.00,0.0298
1584.00,0.0298
1583.00,0.0298
1582.00,0.0299
1581.00,0.0299
1580.00,0.0299
1579.00,0.0300
1578.00,0.0300
1577.00,0.0300
1576.00,0.0300
1575.00,0.0302
1574.00,0.0302
1573.00,0.0302
1572.00,0.0302
1571.00,0.0302
1570.00,0.0303
1569.00,0.0303
1568.00,0.0303
1567.00,0.0302
1566.00,0.0303
1565.00,0.0302
1564.00,0.0301
1563.00,0.0300
1562.00,0.0302
1561.00,0.0304
1560.00,0.0305
1559.00,0.0305
1558.00,0.0308
1557.00,0.0304
1556.00,0.0299
1555.00,0.0297
1554.00,0.0296
1553.00,0.0296
1552.00,0.0296
1551.00,0.0297
1550.00,0.0297
1549.00,0.0296
1548.00,0.0294
1547.00,0.0292
1546.00,0.0291
1545.00,0.0291
1544.00,0.0290
1543.00,0.0288
1542.00,0.0283
1541.00,0.0281
1540.00,0.0285
1539.00,0.0290
1538.00,0.0290
1537.00,0.0288
1536.00,0.0288
1535.00,0.0288
1534.00,0.0288
1533.00,0.0289
1532.00,0.0289
1531.00,0.0287
1530.00,0.0286
1529.00,0.0285
1528.00,0.0284
1527.00,0.0283
1526.00,0.0282
1525.00,0.0281
1524.00,0.0280
1523.00,0.0278
1522.00,0.0277
1521.00,0.0279
1520.00,0.0282
1519.00,0.0284
1518.00,0.0284
1517.00,0.0284
1516.00,0.0282
1515.00,0.0279
1514.00,0.0277
1513.00,0.0275
1512.00,0.0276
1511.00,0.0277
1510.00,0.0279
1509.00,0.0280
1508.00,0.0280
1507.00,0.0279
1506.00,0.0278
1505.00,0.0274
1504.00,0.0271
1503.00,0.0270
1502.00,0.0269
1501.00,0.0268
1500.00,0.0267
1499.00,0.0266
1498.00,0.0263
1497.00,0.0262
1496.00,0.0264
1495.00,0.0266
1494.00,0.0268
1493.00,0.0269
1492.00,0.0271
1491.00,0.0272
1490.00,0.0273
1489.00,0.0275
1488.00,0.0275
1487.00,0.0274
1486.00,0.0271
1485.00,0.0269
1484.00,0.0268
1483.00,0.0267
1482.00,0.0267
1481.00,0.0267
1480.00,0.0267
1479.00,0.0267
1478.00,0.0267
1477.00,0.0268
1476.00,0.0267
1475.00,0.0265
1474.00,0.0262
1473.00,0.0261
1472.00,0.0263
1471.00,0.0264
1470.00,0.0264
1469.00,0.0264
1468.00,0.0264
1467.00,0.0264
1466.00,0.0263
1465.00,0.0263
1464.00,0.0263
1463.00,0.0263
1462.00,0.0263
1461.00,0.0264
1460.00,0.0264
1459.00,0.0263
1458.00,0.0260
1457.00,0.0260
1456.00,0.0263
1455.00,0.0264
1454.00,0.0265
1453.00,0.0266
1452.00,0.0267
1451.00,0.0268
1450.00,0.0269
1449.00,0.0270
1448.00,0.0272
1447.00,0.0273
1446.00,0.0272
1445.00,0.0271
1444.00,0.0271
1443.00,0.0272
1442.00,0.0272
1441.00,0.0271
1440.00,0.0271
1439.00,0.0270
1438.00,0.0270
1437.00,0.0271
1436.00,0.0273
1435.00,0.0274
1434.00,0.0275
1433.00,0.0275
1432.00,0.0276
1431.00,0.0276
1430.00,0.0277
1429.00,0.0277
1428.00,0.0277
1427.00,0.0277
1426.00,0.0277
1425.00,0.0276
1424.00,0.0277
1423.00,0.0277
1422.00,0.0276
1421.00,0.0276
1420.00,0.0276
1419.00,0.0279
1418.00,0.0280
1417.00,0.0281
1416.00,0.0280
1415.00,0.0279
1414.00,0.0279
1413.00,0.0278
1412.00,0.0278
1411.00,0.0279
1410.00,0.0278
1409.00,0.0278
1408.00,0.0278
1407.00,0.0278
1406.00,0.0279
1405.00,0.0279
1404.00,0.0280
1403.00,0.0280
1402.00,0.0280
1401.00,0.0279
1400.00,0.0280
1399.00,0.0281
1398.00,0.0281
1397.00,0.0282
1396.00,0.0282
1395.00,0.0283
1394.00,0.0283
1393.00,0.0282
1392.00,0.0281
1391.00,0.0280
1390.00,0.0280
1389.00,0.0280
1388.00,0.0280
1387.00,0.0282
1386.00,0.0283
1385.00,0.0284
1384.00,0.0284
1383.00,0.0283
1382.00,0.0283
1381.00,0.0283
1380.00,0.0284
1379.00,0.0284
1378.00,0.0285
1377.00,0.0285
1376.00,0.0287
1375.00,0.0288
1374.00,0.0290
1373.00,0.0290
1372.00,0.0290
1371.00,0.0289
1370.00,0.0290
1369.00,0.0290
1368.00,0.0290
1367.00,0.0290
1366.00,0.0290
1365.00,0.0291
1364.00,0.0292
1363.00,0.0294
1362.00,0.0294
1361.00,0.0294
1360.00,0.0294
1359.00,0.0294
1358.00,0.0294
1357.00,0.0294
1356.00,0.0294
1355.00,0.0293
1354.00,0.0293
1353.00,0.0293
1352.00,0.0293
1351.00,0.0293
1350.00,0.0293
1349.00,0.0294
1348.00,0.0294
1347.00,0.0295
1346.00,0.0295
1345.00,0.0295
1344.00,0.0296
1343.00,0.0296
1342.00,0.0297
1341.00,0.0298
1340.00,0.0299
1339.00,0.0300
1338.00,0.0300
1337.00,0.0300
1336.00,0.0298
1335.00,0.0298
1334.00,0.0297
1333.00,0.0297
1332.00,0.0297
1331.00,0.0297
1330.00,0.0297
1329.00,0.0297
1328.00,0.0297
1327.00,0.0297
1326.00,0.0297
1325.00,0.0297
1324.00,0.0298
1323.00,0.0298
1322.00,0.0298
1321.00,0.0298
1320.00,0.0298
1319.00,0.0299
1318.00,0.0299
1317.00,0.0300
1316.00,0.0301
1315.00,0.0301
1314.00,0.0301
1313.00,0.0302
1312.00,0.0301
1311.00,0.0301
1310.00,0.0301
1309.00,0.0301
1308.00,0.0301
1307.00,0.0301
1306.00,0.0301
1305.00,0.0301
1304.00,0.0302
1303.00,0.0302
1302.00,0.0302
1301.00,0.0303
1300.00,0.0303
1299.00,0.0304
1298.00,0.0304
1297.00,0.0304
1296.00,0.0304
1295.00,0.0304
1294.00,0.0305
1293.00,0.0305
1292.00,0.0305
1291.00,0.0306
1290.00,0.0307
1289.00,0.0307
1288.00,0.0308
1287.00,0.0308
1286.00,0.0308
1285.00,0.0308
1284.00,0.0309
1283.00,0.0309
1282.00,0.0310
1281.00,0.0310
1280.00,0.0311
1279.00,0.0311
1278.00,0.0312
1277.00,0.0313
1276.00,0.0313
1275.00,0.0314
1274.00,0.0314
1273.00,0.0314
1272.00,0.0314
1271.00,0.0315
1270.00,0.0315
1269.00,0.0315
1268.00,0.0315
1267.00,0.0315
1266.00,0.0314
1265.00,0.0314
1264.00,0.0313
1263.00,0.0313
1262.00,0.0314
1261.00,0.0315
1260.00,0.0316
1259.00,0.0318
1258.00,0.0319
1257.00,0.0320
1256.00,0.0320
1255.00,0.0321
1254.00,0.0322
1253.00,0.0323
1252.00,0.0324
1251.00,0.0325
1250.00,0.0326
1249.00,0.0326
1248.00,0.0327
1247.00,0.0327
1246.00,0.0328
1245.00,0.0329
1244.00,0.0329
1243.00,0.0330
1242.00,0.0330
1241.00,0.0331
1240.00,0.0331
1239.00,0.0331
1238.00,0.0332
1237.00,0.0332
1236.00,0.0332
1235.00,0.0333
1234.00,0.0333
1233.00,0.0333
1232.00,0.0333
1231.00,0.0334
1230.00,0.0334
1229.00,0.0335
1228.00,0.0335
1227.00,0.0336
1226.00,0.0336
1225.00,0.0337
1224.00,0.0337
1223.00,0.0338
1222.00,0.0337
1221.00,0.0337
1220.00,0.0336
1219.00,0.0336
1218.00,0.0337
1217.00,0.0337
1216.00,0.0338
1215.00,0.0338
1214.00,0.0338
1213.00,0.0338
1212.00,0.0337
1211.00,0.0337
1210.00,0.0337
1209.00,0.0338
1208.00,0.0338
1207.00,0.0339
1206.00,0.0339
1205.00,0.0339
1204.00,0.0338
1203.00,0.0338
1202.00,0.0338
1201.00,0.0337
1200.00,0.0338
1199.00,0.0338
1198.00,0.0339
1197.00,0.0339
1196.00,0.0339
1195.00,0.0340
1194.00,0.0340
1193.00,0.0339
1192.00,0.0339
1191.00,0.0339
1190.00,0.0340
1189.00,0.0341
1188.00,0.0341
1187.00,0.0341
1186.00,0.0341
1185.00,0.0341
1184.00,0.0341
1183.00,0.0341
1182.00,0.0341
1181.00,0.0341
1180.00,0.0341
1179.00,0.0342
1178.00,0.0342
1177.00,0.0342
1176.00,0.0342
1175.00,0.0342
1174.00,0.0341
1173.00,0.0341
1172.00,0.0340
1171.00,0.0340
1170.00,0.0341
1169.00,0.0341
1168.00,0.0342
1167.00,0.0343
1166.00,0.0343
1165.00,0.0343
1164.00,0.0344
1163.00,0.0343
1162.00,0.0343
1161.00,0.0343
1160.00,0.0343
1159.00,0.0343
1158.00,0.0343
1157.00,0.0343
1156.00,0.0343
1155.00,0.0343
1154.00,0.0343
1153.00,0.0344
1152.00,0.0344
1151.00,0.0344
1150.00,0.0344
1149.00,0.0344
1148.00,0.0345
1147.00,0.0346
1146.00,0.0347
1145.00,0.0348
1144.00,0.0347
1143.00,0.0347
1142.00,0.0345
1141.00,0.0344
1140.00,0.0344
1139.00,0.0345
1138.00,0.0346
1137.00,0.0347
1136.00,0.0348
1135.00,0.0349
1134.00,0.0349
1133.00,0.0350
1132.00,0.0351
1131.00,0.0351
1130.00,0.0351
1129.00,0.0352
1128.00,0.0352
1127.00,0.0353
1126.00,0.0354
1125.00,0.0355
1124.00,0.0356
1123.00,0.0357
1122.00,0.0357
1121.00,0.0358
1120.00,0.0359
1119.00,0.0361
1118.00,0.0362
1117.00,0.0363
1116.00,0.0363
1115.00,0.0363
1114.00,0.0362
1113.00,0.0361
1112.00,0.0361
1111.00,0.0361
1110.00,0.0361
1109.00,0.0363
1108.00,0.0364
1107.00,0.0365
1106.00,0.0366
1105.00,0.0366
1104.00,0.0366
1103.00,0.0366
1102.00,0.0366
1101.00,0.0367
1100.00,0.0367
1099.00,0.0368
1098.00,0.0368
1097.00,0.0368
1096.00,0.0368
1095.00,0.0368
1094.00,0.0368
1093.00,0.0369
1092.00,0.0370
1091.00,0.0371
1090.00,0.0371
1089.00,0.0371
1088.00,0.0371
1087.00,0.0372
1086.00,0.0372
1085.00,0.0372
1084.00,0.0372
1083.00,0.0372
1082.00,0.0373
1081.00,0.0373
1080.00,0.0372
1079.00,0.0372
1078.00,0.0372
1077.00,0.0373
1076.00,0.0373
1075.00,0.0374
1074.00,0.0375
1073.00,0.0376
1072.00,0.0377
1071.00,0.0377
1070.00,0.0377
1069.00,0.0377
1068.00,0.0376
1067.00,0.0376
1066.00,0.0376
1065.00,0.0377
1064.00,0.0378
1063.00,0.0379
1062.00,0.0378
1061.00,0.0377
1060.00,0.0377
1059.00,0.0377
1058.00,0.0378
1057.00,0.0379
1056.00,0.0379
1055.00,0.0380
1054.00,0.0381
1053.00,0.0382
1052.00,0.0384
1051.00,0.0386
1050.00,0.0388
1049.00,0.0389
1048.00,0.0391
1047.00,0.0392
1046.00,0.0393
1045.00,0.0392
1044.00,0.0392
1043.00,0.0391
1042.00,0.0391
1041.00,0.0391
1040.00,0.0392
1039.00,0.0394
1038.00,0.0395
1037.00,0.0397
1036.00,0.0398
1035.00,0.0399
1034.00,0.0399
1033.00,0.0398
1032.00,0.0398
1031.00,0.0396
1030.00,0.0395
1029.00,0.0393
1028.00,0.0393
1027.00,0.0392
1026.00,0.0391
1025.00,0.0389
1024.00,0.0387
1023.00,0.0386
1022.00,0.0384
1021.00,0.0384
1020.00,0.0383
1019.00,0.0383
1018.00,0.0384
1017.00,0.0384
1016.00,0.0384
1015.00,0.0384
1014.00,0.0385
1013.00,0.0385
1012.00,0.0386
1011.00,0.0386
1010.00,0.0387
1009.00,0.0387
1008.00,0.0388
1007.00,0.0389
1006.00,0.0389
1005.00,0.0390
1004.00,0.0389
1003.00,0.0389
1002.00,0.0389
1001.00,0.0388
1000.00,0.0387
999.00,0.0385
998.00,0.0384
997.00,0.0381
996.00,0.0379
995.00,0.0376
994.00,0.0374
993.00,0.0372
992.00,0.0372
991.00,0.0370
990.00,0.0369
989.00,0.0367
988.00,0.0366
987.00,0.0366
986.00,0.0366
985.00,0.0365
984.00,0.0364
983.00,0.0363
982.00,0.0361
981.00,0.0360
980.00,0.0359
979.00,0.0358
978.00,0.0357
977.00,0.0355
976.00,0.0354
975.00,0.0353
974.00,0.0351
973.00,0.0351
972.00,0.0350
971.00,0.0350
970.00,0.0350
969.00,0.0350
968.00,0.0349
967.00,0.0348
966.00,0.0347
965.00,0.0346
964.00,0.0345
963.00,0.0345
962.00,0.0344
961.00,0.0344
960.00,0.0343
959.00,0.0343
958.00,0.0343
957.00,0.0342
956.00,0.0342
955.00,0.0343
954.00,0.0344
953.00,0.0344
952.00,0.0343
951.00,0.0342
950.00,0.0342
949.00,0.0341
948.00,0.0342
947.00,0.0343
946.00,0.0344
945.00,0.0345
944.00,0.0345
943.00,0.0345
942.00,0.0345
941.00,0.0345
940.00,0.0346
939.00,0.0346
938.00,0.0347
937.00,0.0347
936.00,0.0347
935.00,0.0348
934.00,0.0347
933.00,0.0347
932.00,0.0346
931.00,0.0345
930.00,0.0344
929.00,0.0344
928.00,0.0345
927.00,0.0347
926.00,0.0349
925.00,0.0350
924.00,0.0351
923.00,0.0351
922.00,0.0351
921.00,0.0352
920.00,0.0353
919.00,0.0355
918.00,0.0357
917.00,0.0358
916.00,0.0358
915.00,0.0358
914.00,0.0358
913.00,0.0359
912.00,0.0360
911.00,0.0361
910.00,0.0361
909.00,0.0360
908.00,0.0359
907.00,0.0357
906.00,0.0355
905.00,0.0353
904.00,0.0352
903.00,0.0352
902.00,0.0352
901.00,0.0352
900.00,0.0352
899.00,0.0352
898.00,0.0352
897.00,0.0351
896.00,0.0351
895.00,0.0350
894.00,0.0350
893.00,0.0350
892.00,0.0350
891.00,0.0350
890.00,0.0350
889.00,0.0350
888.00,0.0349
887.00,0.0349
886.00,0.0348
885.00,0.0348
884.00,0.0347
883.00,0.0347
882.00,0.0348
881.00,0.0348
880.00,0.0349
879.00,0.0349
878.00,0.0348
877.00,0.0347
876.00,0.0347
875.00,0.0346
874.00,0.0346
873.00,0.0345
872.00,0.0343
871.00,0.0341
870.00,0.0340
869.00,0.0340
868.00,0.0340
867.00,0.0340
866.00,0.0339
865.00,0.0339
864.00,0.0339
863.00,0.0339
862.00,0.0340
861.00,0.0340
860.00,0.0340
859.00,0.0340
858.00,0.0340
857.00,0.0340
856.00,0.0339
855.00,0.0340
854.00,0.0340
853.00,0.0339
852.00,0.0338
851.00,0.0337
850.00,0.0337
849.00,0.0338
848.00,0.0338
847.00,0.0339
846.00,0.0341
845.00,0.0342
844.00,0.0342
843.00,0.0342
842.00,0.0342
841.00,0.0342
840.00,0.0342
839.00,0.0342
838.00,0.0343
837.00,0.0345
836.00,0.0345
835.00,0.0346
834.00,0.0346
833.00,0.0346
832.00,0.0346
831.00,0.0346
830.00,0.0348
829.00,0.0349
828.00,0.0350
827.00,0.0349
826.00,0.0348
825.00,0.0347
824.00,0.0347
823.00,0.0348
822.00,0.0349
821.00,0.0350
820.00,0.0350
819.00,0.0349
818.00,0.0349
817.00,0.0349
816.00,0.0350
815.00,0.0350
814.00,0.0350
813.00,0.0351
812.00,0.0351
811.00,0.0351
810.00,0.0352
809.00,0.0353
808.00,0.0354
807.00,0.0354
806.00,0.0354
805.00,0.0354
804.00,0.0354
803.00,0.0354
802.00,0.0355
801.00,0.0357
800.00,0.0360
799.00,0.0360
798.00,0.0360
797.00,0.0360
796.00,0.0361
795.00,0.0362
794.00,0.0362
793.00,0.0362
792.00,0.0361
791.00,0.0361
790.00,0.0362
789.00,0.0364
788.00,0.0365
787.00,0.0366
786.00,0.0367
785.00,0.0368
784.00,0.0369
783.00,0.0370
782.00,0.0371
781.00,0.0371
780.00,0.0372
779.00,0.0371
778.00,0.0370
777.00,0.0368
776.00,0.0368
775.00,0.0368
774.00,0.0368
773.00,0.0369
772.00,0.0370
771.00,0.0371
770.00,0.0371
769.00,0.0372
768.00,0.0372
767.00,0.0372
766.00,0.0372
765.00,0.0373
764.00,0.0374
763.00,0.0374
762.00,0.0374
761.00,0.0374
760.00,0.0375
759.00,0.0377
758.00,0.0380
757.00,0.0381
756.00,0.0382
755.00,0.0381
754.00,0.0380
753.00,0.0380
752.00,0.0381
751.00,0.0383
750.00,0.0384
749.00,0.0384
748.00,0.0383
747.00,0.0382
746.00,0.0382
745.00,0.0381
744.00,0.0381
743.00,0.0381
742.00,0.0380
741.00,0.0379
740.00,0.0378
739.00,0.0378
738.00,0.0378
737.00,0.0379
736.00,0.0379
735.00,0.0378
734.00,0.0378
733.00,0.0378
732.00,0.0378
731.00,0.0379
730.00,0.0379
729.00,0.0378
728.00,0.0376
727.00,0.0376
726.00,0.0376
725.00,0.0378
724.00,0.0379
723.00,0.0379
722.00,0.0379
721.00,0.0380
720.00,0.0382
719.00,0.0384
718.00,0.0384
717.00,0.0384
716.00,0.0383
715.00,0.0383
714.00,0.0385
713.00,0.0388
712.00,0.0390
711.00,0.0391
710.00,0.0389
709.00,0.0387
708.00,0.0387
707.00,0.0388
706.00,0.0392
705.00,0.0397
704.00,0.0400
703.00,0.0401
702.00,0.0399
701.00,0.0398
700.00,0.0399
699.00,0.0402
698.00,0.0404
697.00,0.0406
696.00,0.0407
695.00,0.0406
694.00,0.0402
693.00,0.0397
692.00,0.0394
691.00,0.0396
690.00,0.0400
689.00,0.0402
688.00,0.0400
687.00,0.0397
686.00,0.0395
685.00,0.0395
684.00,0.0396
683.00,0.0399
682.00,0.0403
681.00,0.0406
680.00,0.0407
679.00,0.0404
678.00,0.0403
677.00,0.0404
676.00,0.0408
675.00,0.0411
674.00,0.0411
673.00,0.0407
672.00,0.0403
671.00,0.0402
670.00,0.0406
669.00,0.0419
668.00,0.0440
667.00,0.0454
666.00,0.0450
665.00,0.0437
664.00,0.0425
663.00,0.0416
662.00,0.0408
661.00,0.0405
660.00,0.0407
659.00,0.0412
658.00,0.0415
657.00,0.0414
656.00,0.0412
655.00,0.0412
654.00,0.0415
653.00,0.0419
652.00,0.0422
651.00,0.0421
650.00,0.0418
