Created as New Dataset,
cm-1,A
4000.00,0.0116
3999.00,0.0116
3998.00,0.0117
3997.00,0.0117
3996.00,0.0117
3995.00,0.0117
3994.00,0.0118
3993.00,0.0118
3992.00,0.0118
3991.00,0.0117
3990.00,0.0117
3989.00,0.0116
3988.00,0.0116
3987.00,0.0116
3986.00,0.0116
3985.00,0.0117
3984.00,0.0117
3983.00,0.0117
3982.00,0.0117
3981.00,0.0117
3980.00,0.0117
3979.00,0.0117
3978.00,0.0118
3977.00,0.0118
3976.00,0.0117
3975.00,0.0117
3974.00,0.0118
3973.00,0.0118
3972.00,0.0118
3971.00,0.0118
3970.00,0.0117
3969.00,0.0117
3968.00,0.0116
3967.00,0.0116
3966.00,0.0116
3965.00,0.0117
3964.00,0.0117
3963.00,0.0117
3962.00,0.0117
3961.00,0.0118
3960.00,0.0118
3959.00,0.0118
3958.00,0.0118
3957.00,0.0118
3956.00,0.0118
3955.00,0.0117
3954.00,0.0117
3953.00,0.0117
3952.00,0.0118
3951.00,0.0119
3950.00,0.0119
3949.00,0.0120
3948.00,0.0120
3947.00,0.0120
3946.00,0.0121
3945.00,0.0121
3944.00,0.0121
3943.00,0.0120
3942.00,0.0120
3941.00,0.0120
3940.00,0.0120
3939.00,0.0120
3938.00,0.0119
3937.00,0.0118
3936.00,0.0119
3935.00,0.0120
3934.00,0.0120
3933.00,0.0120
3932.00,0.0121
3931.00,0.0121
3930.00,0.0121
3929.00,0.0121
3928.00,0.0121
3927.00,0.0121
3926.00,0.0120
3925.00,0.0120
3924.00,0.0120
3923.00,0.0120
3922.00,0.0121
3921.00,0.0121
3920.00,0.0120
3919.00,0.0120
3918.00,0.0120
3917.00,0.0120
3916.00,0.0120
3915.00,0.0120
3914.00,0.0119
3913.00,0.0119
3912.00,0.0118
3911.00,0.0117
3910.00,0.0117
3909.00,0.0118
3908.00,0.0119
3907.00,0.0121
3906.00,0.0122
3905.00,0.0123
3904.00,0.0125
3903.00,0.0127
3902.00,0.0130
3901.00,0.0131
3900.00,0.0129
3899.00,0.0126
3898.00,0.0124
3897.00,0.0122
3896.00,0.0122
3895.00,0.0122
3894.00,0.0123
3893.00,0.0122
3892.00,0.0121
3891.00,0.0119
3890.00,0.0119
3889.00,0.0122
3888.00,0.0124
3887.00,0.0124
3886.00,0.0121
3885.00,0.0121
3884.00,0.0124
3883.00,0.0129
3882.00,0.0130
3881.00,0.0127
3880.00,0.0124
3879.00,0.0122
3878.00,0.0124
3877.00,0.0126
3876.00,0.0125
3875.00,0.0123
3874.00,0.0121
3873.00,0.0123
3872.00,0.0126
3871.00,0.0127
3870.00,0.0124
3869.00,0.0123
3868.00,0.0126
3867.00,0.0129
3866.00,0.0128
3865.00,0.0125
3864.00,0.0123
3863.00,0.0124
3862.00,0.0124
3861.00,0.0123
3860.00,0.0121
3859.00,0.0119
3858.00,0.0119
3857.00,0.0120
3856.00,0.0123
3855.00,0.0122
3854.00,0.0121
3853.00,0.0122
3852.00,0.0125
3851.00,0.0127
3850.00,0.0126
3849.00,0.0124
3848.00,0.0122
3847.00,0.0120
3846.00,0.0120
3845.00,0.0120
3844.00,0.0119
3843.00,0.0120
3842.00,0.0121
3841.00,0.0123
3840.00,0.0124
3839.00,0.0124
3838.00,0.0124
3837.00,0.0124
3836.00,0.0125
3835.00,0.0126
3834.00,0.0126
3833.00,0.0124
3832.00,0.0123
3831.00,0.0121
3830.00,0.0122
3829.00,0.0122
3828.00,0.0122
3827.00,0.0120
3826.00,0.0118
3825.00,0.0119
3824.00,0.0123
3823.00,0.0125
3822.00,0.0122
3821.00,0.0119
3820.00,0.0120
3819.00,0.0124
3818.00,0.0126
3817.00,0.0124
3816.00,0.0120
3815.00,0.0119
3814.00,0.0120
3813.00,0.0121
3812.00,0.0119
3811.00,0.0117
3810.00,0.0117
3809.00,0.0117
3808.00,0.0116
3807.00,0.0114
3806.00,0.0114
3805.00,0.0117
3804.00,0.0122
3803.00,0.0123
3802.00,0.0120
3801.00,0.0119
3800.00,0.0122
3799.00,0.0126
3798.00,0.0126
3797.00,0.0123
3796.00,0.0120
3795.00,0.0119
3794.00,0.0120
3793.00,0.0120
3792.00,0.0119
3791.00,0.0118
3790.00,0.0117
3789.00,0.0117
3788.00,0.0117
3787.00,0.0117
3786.00,0.0117
3785.00,0.0116
3784.00,0.0117
3783.00,0.0119
3782.00,0.0120
3781.00,0.0120
3780.00,0.0119
3779.00,0.0118
3778.00,0.0118
3777.00,0.0119
3776.00,0.0119
3775.00,0.0118
3774.00,0.0117
3773.00,0.0117
3772.00,0.0118
3771.00,0.0117
3770.00,0.0117
3769.00,0.0119
3768.00,0.0121
3767.00,0.0123
3766.00,0.0122
3765.00,0.0120
3764.00,0.0120
3763.00,0.0122
3762.00,0.0123
3761.00,0.0122
3760.00,0.0121
3759.00,0.0120
3758.00,0.0120
3757.00,0.0119
3756.00,0.0119
3755.00,0.0119
3754.00,0.0119
3753.00,0.0117
3752.00,0.0117
3751.00,0.0118
3750.00,0.0120
3749.00,0.0122
3748.00,0.0125
3747.00,0.0129
3746.00,0.0130
3745.00,0.0127
3744.00,0.0123
3743.00,0.0124
3742.00,0.0125
3741.00,0.0125
3740.00,0.0124
3739.00,0.0123
3738.00,0.0124
3737.00,0.0125
3736.00,0.0126
3735.00,0.0129
3734.00,0.0131
3733.00,0.0130
3732.00,0.0127
3731.00,0.0124
3730.00,0.0123
3729.00,0.0124
3728.00,0.0124
3727.00,0.0123
3726.00,0.0123
3725.00,0.0125
3724.00,0.0126
3723.00,0.0126
3722.00,0.0126
3721.00,0.0125
3720.00,0.0125
3719.00,0.0125
3718.00,0.0124
3717.00,0.0123
3716.00,0.0124
3715.00,0.0125
3714.00,0.0127
3713.00,0.0127
3712.00,0.0129
3711.00,0.0133
3710.00,0.0136
3709.00,0.0137
3708.00,0.0137
3707.00,0.0136
3706.00,0.0135
3705.00,0.0136
3704.00,0.0138
3703.00,0.0140
3702.00,0.0143
3701.00,0.0145
3700.00,0.0147
3699.00,0.0148
3698.00,0.0148
3697.00,0.0147
3696.00,0.0147
3695.00,0.0147
3694.00,0.0148
3693.00,0.0149
3692.00,0.0149
3691.00,0.0149
3690.00,0.0150
3689.00,0.0151
3688.00,0.0151
3687.00,0.0150
3686.00,0.0149
3685.00,0.0147
3684.00,0.0145
3683.00,0.0142
3682.00,0.0141
3681.00,0.0139
3680.00,0.0138
3679.00,0.0139
3678.00,0.0142
3677.00,0.0145
3676.00,0.0145
3675.00,0.0146
3674.00,0.0148
3673.00,0.0151
3672.00,0.0152
3671.00,0.0149
3670.00,0.0147
3669.00,0.0148
3668.00,0.0150
3667.00,0.0150
3666.00,0.0149
3665.00,0.0146
3664.00,0.0145
3663.00,0.0144
3662.00,0.0143
3661.00,0.0144
3660.00,0.0145
3659.00,0.0147
3658.00,0.0149
3657.00,0.0151
3656.00,0.0152
3655.00,0.0155
3654.00,0.0159
3653.00,0.0162
3652.00,0.0162
3651.00,0.0159
3650.00,0.0160
3649.00,0.0167
3648.00,0.0173
3647.00,0.0174
3646.00,0.0171
3645.00,0.0168
3644.00,0.0164
3643.00,0.0161
3642.00,0.0158
3641.00,0.0157
3640.00,0.0156
3639.00,0.0156
3638.00,0.0156
3637.00,0.0157
3636.00,0.0157
3635.00,0.0157
3634.00,0.0155
3633.00,0.0155
3632.00,0.0158
3631.00,0.0161
3630.00,0.0164
3629.00,0.0166
3628.00,0.0170
3627.00,0.0173
3626.00,0.0175
3625.00,0.0174
3624.00,0.0174
3623.00,0.0175
3622.00,0.0177
3621.00,0.0180
3620.00,0.0181
3619.00,0.0181
3618.00,0.0181
3617.00,0.0181
3616.00,0.0179
3615.00,0.0176
3614.00,0.0172
3613.00,0.0170
3612.00,0.0169
3611.00,0.0169
3610.00,0.0170
3609.00,0.0169
3608.00,0.0168
3607.00,0.0167
3606.00,0.0167
3605.00,0.0166
3604.00,0.0165
3603.00,0.0164
3602.00,0.0164
3601.00,0.0164
3600.00,0.0165
3599.00,0.0165
3598.00,0.0166
3597.00,0.0166
3596.00,0.0166
3595.00,0.0166
3594.00,0.0166
3593.00,0.0165
3592.00,0.0165
3591.00,0.0166
3590.00,0.0168
3589.00,0.0169
3588.00,0.0170
3587.00,0.0172
3586.00,0.0173
3585.00,0.0172
3584.00,0.0171
3583.00,0.0169
3582.00,0.0167
3581.00,0.0166
3580.00,0.0166
3579.00,0.0166
3578.00,0.0166
3577.00,0.0166
3576.00,0.0166
3575.00,0.0166
3574.00,0.0166
3573.00,0.0166
3572.00,0.0166
3571.00,0.0168
3570.00,0.0170
3569.00,0.0172
3568.00,0.0174
3567.00,0.0177
3566.00,0.0179
3565.00,0.0179
3564.00,0.0178
3563.00,0.0175
3562.00,0.0173
3561.00,0.0172
3560.00,0.0171
3559.00,0.0170
3558.00,0.0170
3557.00,0.0170
3556.00,0.0169
3555.00,0.0170
3554.00,0.0170
3553.00,0.0170
3552.00,0.0171
3551.00,0.0172
3550.00,0.0173
3549.00,0.0174
3548.00,0.0174
3547.00,0.0175
3546.00,0.0176
3545.00,0.0177
3544.00,0.0177
3543.00,0.0176
3542.00,0.0175
3541.00,0.0175
3540.00,0.0174
3539.00,0.0174
3538.00,0.0175
3537.00,0.0175
3536.00,0.0175
3535.00,0.0175
3534.00,0.0174
3533.00,0.0175
3532.00,0.0175
3531.00,0.0175
3530.00,0.0176
3529.00,0.0177
3528.00,0.0178
3527.00,0.0179
3526.00,0.0180
3525.00,0.0181
3524.00,0.0181
3523.00,0.0180
3522.00,0.0180
3521.00,0.0180
3520.00,0.0179
3519.00,0.0179
3518.00,0.0179
3517.00,0.0179
3516.00,0.0179
3515.00,0.0180
3514.00,0.0180
3513.00,0.0180
3512.00,0.0181
3511.00,0.0181
3510.00,0.0182
3509.00,0.0182
3508.00,0.0182
3507.00,0.0183
3506.00,0.0183
3505.00,0.0183
3504.00,0.0183
3503.00,0.0183
3502.00,0.0184
3501.00,0.0184
3500.00,0.0185
3499.00,0.0185
3498.00,0.0184
3497.00,0.0184
3496.00,0.0184
3495.00,0.0184
3494.00,0.0184
3493.00,0.0185
3492.00,0.0185
3491.00,0.0185
3490.00,0.0185
3489.00,0.0184
3488.00,0.0184
3487.00,0.0185
3486.00,0.0186
3485.00,0.0187
3484.00,0.0188
3483.00,0.0188
3482.00,0.0188
3481.00,0.0189
3480.00,0.0188
3479.00,0.0188
3478.00,0.0188
3477.00,0.0188
3476.00,0.0188
3475.00,0.0188
3474.00,0.0189
3473.00,0.0190
3472.00,0.0190
3471.00,0.0191
3470.00,0.0190
3469.00,0.0190
3468.00,0.0190
3467.00,0.0190
3466.00,0.0190
3465.00,0.0190
3464.00,0.0191
3463.00,0.0191
3462.00,0.0191
3461.00,0.0191
3460.00,0.0191
3459.00,0.0190
3458.00,0.0191
3457.00,0.0191
3456.00,0.0191
3455.00,0.0192
3454.00,0.0192
3453.00,0.0192
3452.00,0.0193
3451.00,0.0193
3450.00,0.0194
3449.00,0.0194
3448.00,0.0195
3447.00,0.0195
3446.00,0.0195
3445.00,0.0196
3444.00,0.0196
3443.00,0.0195
3442.00,0.0195
3441.00,0.0195
3440.00,0.0195
3439.00,0.0195
3438.00,0.0195
3437.00,0.0194
3436.00,0.0194
3435.00,0.0194
3434.00,0.0195
3433.00,0.0195
3432.00,0.0195
3431.00,0.0195
3430.00,0.0195
3429.00,0.0195
3428.00,0.0196
3427.00,0.0196
3426.00,0.0196
3425.00,0.0197
3424.00,0.0198
3423.00,0.0198
3422.00,0.0198
3421.00,0.0198
3420.00,0.0198
3419.00,0.0198
3418.00,0.0198
3417.00,0.0198
3416.00,0.0197
3415.00,0.0197
3414.00,0.0197
3413.00,0.0198
3412.00,0.0199
3411.00,0.0199
3410.00,0.0199
3409.00,0.0199
3408.00,0.0199
3407.00,0.0199
3406.00,0.0200
3405.00,0.0201
3404.00,0.0201
3403.00,0.0202
3402.00,0.0201
3401.00,0.0201
3400.00,0.0200
3399.00,0.0200
3398.00,0.0200
3397.00,0.0200
3396.00,0.0201
3395.00,0.0201
3394.00,0.0202
3393.00,0.0202
3392.00,0.0202
3391.00,0.0201
3390.00,0.0201
3389.00,0.0201
3388.00,0.0201
3387.00,0.0201
3386.00,0.0202
3385.00,0.0202
3384.00,0.0202
3383.00,0.0202
3382.00,0.0201
3381.00,0.0201
3380.00,0.0201
3379.00,0.0201
3378.00,0.0201
3377.00,0.0201
3376.00,0.0201
3375.00,0.0202
3374.00,0.0203
3373.00,0.0203
3372.00,0.0203
3371.00,0.0203
3370.00,0.0203
3369.00,0.0202
3368.00,0.0202
3367.00,0.0202
3366.00,0.0202
3365.00,0.0203
3364.00,0.0203
3363.00,0.0204
3362.00,0.0204
3361.00,0.0204
3360.00,0.0204
3359.00,0.0204
3358.00,0.0204
3357.00,0.0204
3356.00,0.0204
3355.00,0.0204
3354.00,0.0204
3353.00,0.0203
3352.00,0.0203
3351.00,0.0203
3350.00,0.0202
3349.00,0.0202
3348.00,0.0202
3347.00,0.0202
3346.00,0.0203
3345.00,0.0203
3344.00,0.0204
3343.00,0.0203
3342.00,0.0203
3341.00,0.0203
3340.00,0.0203
3339.00,0.0203
3338.00,0.0204
3337.00,0.0204
3336.00,0.0204
3335.00,0.0204
3334.00,0.0204
3333.00,0.0204
3332.00,0.0204
3331.00,0.0204
3330.00,0.0204
3329.00,0.0204
3328.00,0.0205
3327.00,0.0205
3326.00,0.0205
3325.00,0.0205
3324.00,0.0205
3323.00,0.0205
3322.00,0.0205
3321.00,0.0205
3320.00,0.0204
3319.00,0.0204
3318.00,0.0204
3317.00,0.0204
3316.00,0.0204
3315.00,0.0204
3314.00,0.0204
3313.00,0.0204
3312.00,0.0204
3311.00,0.0204
3310.00,0.0205
3309.00,0.0205
3308.00,0.0205
3307.00,0.0205
3306.00,0.0205
3305.00,0.0206
3304.00,0.0206
3303.00,0.0206
3302.00,0.0206
3301.00,0.0205
3300.00,0.0204
3299.00,0.0204
3298.00,0.0204
3297.00,0.0204
3296.00,0.0205
3295.00,0.0205
3294.00,0.0205
3293.00,0.0205
3292.00,0.0205
3291.00,0.0205
3290.00,0.0205
3289.00,0.0205
3288.00,0.0204
3287.00,0.0204
3286.00,0.0205
3285.00,0.0205
3284.00,0.0205
3283.00,0.0205
3282.00,0.0205
3281.00,0.0204
3280.00,0.0204
3279.00,0.0205
3278.00,0.0205
3277.00,0.0205
3276.00,0.0205
3275.00,0.0206
3274.00,0.0206
3273.00,0.0206
3272.00,0.0206
3271.00,0.0206
3270.00,0.0205
3269.00,0.0205
3268.00,0.0204
3267.00,0.0205
3266.00,0.0205
3265.00,0.0205
3264.00,0.0205
3263.00,0.0204
3262.00,0.0204
3261.00,0.0204
3260.00,0.0204
3259.00,0.0204
3258.00,0.0205
3257.00,0.0206
3256.00,0.0206
3255.00,0.0206
3254.00,0.0205
3253.00,0.0205
3252.00,0.0205
3251.00,0.0204
3250.00,0.0204
3249.00,0.0204
3248.00,0.0205
3247.00,0.0205
3246.00,0.0206
3245.00,0.0206
3244.00,0.0206
3243.00,0.0206
3242.00,0.0206
3241.00,0.0206
3240.00,0.0205
3239.00,0.0205
3238.00,0.0205
3237.00,0.0205
3236.00,0.0205
3235.00,0.0205
3234.00,0.0206
3233.00,0.0206
3232.00,0.0207
3231.00,0.0207
3230.00,0.0207
3229.00,0.0207
3228.00,0.0206
3227.00,0.0206
3226.00,0.0206
3225.00,0.0206
3224.00,0.0206
3223.00,0.0206
3222.00,0.0206
3221.00,0.0206
3220.00,0.0206
3219.00,0.0206
3218.00,0.0205
3217.00,0.0205
3216.00,0.0205
3215.00,0.0205
3214.00,0.0205
3213.00,0.0205
3212.00,0.0205
3211.00,0.0205
3210.00,0.0205
3209.00,0.0205
3208.00,0.0205
3207.00,0.0205
3206.00,0.0205
3205.00,0.0205
3204.00,0.0205
3203.00,0.0205
3202.00,0.0204
3201.00,0.0204
3200.00,0.0204
3199.00,0.0204
3198.00,0.0204
3197.00,0.0205
3196.00,0.0205
3195.00,0.0205
3194.00,0.0204
3193.00,0.0204
3192.00,0.0203
3191.00,0.0203
3190.00,0.0203
3189.00,0.0203
3188.00,0.0203
3187.00,0.0203
3186.00,0.0204
3185.00,0.0204
3184.00,0.0204
3183.00,0.0204
3182.00,0.0203
3181.00,0.0203
3180.00,0.0203
3179.00,0.0202
3178.00,0.0202
3177.00,0.0202
3176.00,0.0202
3175.00,0.0202
3174.00,0.0202
3173.00,0.0202
3172.00,0.0202
3171.00,0.0202
3170.00,0.0202
3169.00,0.0201
3168.00,0.0201
3167.00,0.0201
3166.00,0.0201
3165.00,0.0201
3164.00,0.0201
3163.00,0.0201
3162.00,0.0200
3161.00,0.0200
3160.00,0.0200
3159.00,0.0200
3158.00,0.0201
3157.00,0.0200
3156.00,0.0200
3155.00,0.0199
3154.00,0.0199
3153.00,0.0199
3152.00,0.0198
3151.00,0.0198
3150.00,0.0199
3149.00,0.0199
3148.00,0.0199
3147.00,0.0199
3146.00,0.0199
3145.00,0.0199
3144.00,0.0199
3143.00,0.0199
3142.00,0.0198
3141.00,0.0198
3140.00,0.0198
3139.00,0.0197
3138.00,0.0197
3137.00,0.0197
3136.00,0.0197
3135.00,0.0197
3134.00,0.0197
3133.00,0.0196
3132.00,0.0196
3131.00,0.0197
3130.00,0.0197
3129.00,0.0197
3128.00,0.0198
3127.00,0.0198
3126.00,0.0197
3125.00,0.0197
3124.00,0.0197
3123.00,0.0197
3122.00,0.0196
3121.00,0.0196
3120.00,0.0196
3119.00,0.0196
3118.00,0.0196
3117.00,0.0196
3116.00,0.0196
3115.00,0.0196
3114.00,0.0196
3113.00,0.0196
3112.00,0.0196
3111.00,0.0196
3110.00,0.0195
3109.00,0.0195
3108.00,0.0194
3107.00,0.0194
3106.00,0.0194
3105.00,0.0194
3104.00,0.0194
3103.00,0.0194
3102.00,0.0194
3101.00,0.0194
3100.00,0.0194
3099.00,0.0195
3098.00,0.0195
3097.00,0.0195
3096.00,0.0195
3095.00,0.0194
3094.00,0.0194
3093.00,0.0194
3092.00,0.0194
3091.00,0.0193
3090.00,0.0193
3089.00,0.0193
3088.00,0.0193
3087.00,0.0194
3086.00,0.0194
3085.00,0.0193
3084.00,0.0193
3083.00,0.0193
3082.00,0.0192
3081.00,0.0192
3080.00,0.0192
3079.00,0.0191
3078.00,0.0191
3077.00,0.0191
3076.00,0.0191
3075.00,0.0191
3074.00,0.0191
3073.00,0.0191
3072.00,0.0191
3071.00,0.0191
3070.00,0.0192
3069.00,0.0191
3068.00,0.0191
3067.00,0.0191
3066.00,0.0191
3065.00,0.0191
3064.00,0.0191
3063.00,0.0191
3062.00,0.0191
3061.00,0.0190
3060.00,0.0190
3059.00,0.0190
3058.00,0.0190
3057.00,0.0191
3056.00,0.0191
3055.00,0.0191
3054.00,0.0191
3053.00,0.0190
3052.00,0.0190
3051.00,0.0190
3050.00,0.0189
3049.00,0.0188
3048.00,0.0188
3047.00,0.0188
3046.00,0.0188
3045.00,0.0188
3044.00,0.0188
3043.00,0.0189
3042.00,0.0189
3041.00,0.0188
3040.00,0.0188
3039.00,0.0188
3038.00,0.0188
3037.00,0.0188
3036.00,0.0188
3035.00,0.0187
3034.00,0.0187
3033.00,0.0187
3032.00,0.0187
3031.00,0.0187
3030.00,0.0187
3029.00,0.0187
3028.00,0.0186
3027.00,0.0186
3026.00,0.0185
3025.00,0.0185
3024.00,0.0185
3023.00,0.0185
3022.00,0.0185
3021.00,0.0185
3020.00,0.0185
3019.00,0.0185
3018.00,0.0185
3017.00,0.0185
3016.00,0.0185
3015.00,0.0185
3014.00,0.0185
3013.00,0.0185
3012.00,0.0185
3011.00,0.0184
3010.00,0.0184
3009.00,0.0184
3008.00,0.0183
3007.00,0.0183
3006.00,0.0183
3005.00,0.0183
3004.00,0.0183
3003.00,0.0183
3002.00,0.0182
3001.00,0.0182
3000.00,0.0182
2999.00,0.0181
2998.00,0.0181
2997.00,0.0181
2996.00,0.0180
2995.00,0.0180
2994.00,0.0180
2993.00,0.0180
2992.00,0.0180
2991.00,0.0180
2990.00,0.0179
2989.00,0.0179
2988.00,0.0179
2987.00,0.0179
2986.00,0.0179
2985.00,0.0179
2984.00,0.0179
2983.00,0.0179
2982.00,0.0178
2981.00,0.0178
2980.00,0.0178
2979.00,0.0178
2978.00,0.0178
2977.00,0.0178
2976.00,0.0177
2975.00,0.0177
2974.00,0.0176
2973.00,0.0176
2972.00,0.0175
2971.00,0.0174
2970.00,0.0174
2969.00,0.0173
2968.00,0.0173
2967.00,0.0173
2966.00,0.0172
2965.00,0.0172
2964.00,0.0171
2963.00,0.0170
2962.00,0.0170
2961.00,0.0169
2960.00,0.0169
2959.00,0.0169
2958.00,0.0169
2957.00,0.0169
2956.00,0.0169
2955.00,0.0168
2954.00,0.0168
2953.00,0.0169
2952.00,0.0169
2951.00,0.0169
2950.00,0.0169
2949.00,0.0169
2948.00,0.0169
2947.00,0.0169
2946.00,0.0169
2945.00,0.0169
2944.00,0.0169
2943.00,0.0169
2942.00,0.0168
2941.00,0.0167
2940.00,0.0167
2939.00,0.0166
2938.00,0.0165
2937.00,0.0164
2936.00,0.0163
2935.00,0.0162
2934.00,0.0161
2933.00,0.0160
2932.00,0.0159
2931.00,0.0158
2930.00,0.0156
2929.00,0.0155
2928.00,0.0154
2927.00,0.0153
2926.00,0.0152
2925.00,0.0151
2924.00,0.0151
2923.00,0.0151
2922.00,0.0151
2921.00,0.0151
2920.00,0.0151
2919.00,0.0151
2918.00,0.0150
2917.00,0.0151
2916.00,0.0152
2915.00,0.0153
2914.00,0.0155
2913.00,0.0157
2912.00,0.0159
2911.00,0.0160
2910.00,0.0161
2909.00,0.0162
2908.00,0.0162
2907.00,0.0163
2906.00,0.0163
2905.00,0.0163
2904.00,0.0163
2903.00,0.0164
2902.00,0.0164
2901.00,0.0165
2900.00,0.0165
2899.00,0.0165
2898.00,0.0165
2897.00,0.0164
2896.00,0.0164
2895.00,0.0164
2894.00,0.0165
2893.00,0.0165
2892.00,0.0165
2891.00,0.0166
2890.00,0.0166
2889.00,0.0166
2888.00,0.0166
2887.00,0.0166
2886.00,0.0166
2885.00,0.0167
2884.00,0.0167
2883.00,0.0167
2882.00,0.0168
2881.00,0.0168
2880.00,0.0167
2879.00,0.0167
2878.00,0.0166
2877.00,0.0166
2876.00,0.0165
2875.00,0.0165
2874.00,0.0164
2873.00,0.0163
2872.00,0.0163
2871.00,0.0162
2870.00,0.0162
2869.00,0.0162
2868.00,0.0162
2867.00,0.0161
2866.00,0.0161
2865.00,0.0161
2864.00,0.0161
2863.00,0.0161
2862.00,0.0161
2861.00,0.0160
2860.00,0.0159
2859.00,0.0159
2858.00,0.0158
2857.00,0.0157
2856.00,0.0156
2855.00,0.0155
2854.00,0.0155
2853.00,0.0155
2852.00,0.0155
2851.00,0.0155
2850.00,0.0155
2849.00,0.0155
2848.00,0.0155
2847.00,0.0156
2846.00,0.0157
2845.00,0.0158
2844.00,0.0159
2843.00,0.0160
2842.00,0.0161
2841.00,0.0162
2840.00,0.0163
2839.00,0.0163
2838.00,0.0164
2837.00,0.0164
2836.00,0.0163
2835.00,0.0163
2834.00,0.0163
2833.00,0.0163
2832.00,0.0163
2831.00,0.0163
2830.00,0.0163
2829.00,0.0163
2828.00,0.0164
2827.00,0.0164
2826.00,0.0164
2825.00,0.0164
2824.00,0.0164
2823.00,0.0163
2822.00,0.0163
2821.00,0.0163
2820.00,0.0164
2819.00,0.0164
2818.00,0.0164
2817.00,0.0163
2816.00,0.0163
2815.00,0.0163
2814.00,0.0163
2813.00,0.0162
2812.00,0.0162
2811.00,0.0162
2810.00,0.0162
2809.00,0.0162
2808.00,0.0162
2807.00,0.0162
2806.00,0.0162
2805.00,0.0162
2804.00,0.0161
2803.00,0.0161
2802.00,0.0161
2801.00,0.0161
2800.00,0.0161
2799.00,0.0161
2798.00,0.0161
2797.00,0.0161
2796.00,0.0161
2795.00,0.0161
2794.00,0.0161
2793.00,0.0160
2792.00,0.0160
2791.00,0.0160
2790.00,0.0161
2789.00,0.0161
2788.00,0.0161
2787.00,0.0161
2786.00,0.0161
2785.00,0.0161
2784.00,0.0161
2783.00,0.0160
2782.00,0.0160
2781.00,0.0160
2780.00,0.0160
2779.00,0.0160
2778.00,0.0160
2777.00,0.0160
2776.00,0.0160
2775.00,0.0160
2774.00,0.0160
2773.00,0.0160
2772.00,0.0159
2771.00,0.0159
2770.00,0.0159
2769.00,0.0159
2768.00,0.0159
2767.00,0.0158
2766.00,0.0158
2765.00,0.0159
2764.00,0.0159
2763.00,0.0159
2762.00,0.0159
2761.00,0.0158
2760.00,0.0158
2759.00,0.0158
2758.00,0.0158
2757.00,0.0158
2756.00,0.0158
2755.00,0.0158
2754.00,0.0158
2753.00,0.0158
2752.00,0.0158
2751.00,0.0158
2750.00,0.0158
2749.00,0.0158
2748.00,0.0158
2747.00,0.0159
2746.00,0.0158
2745.00,0.0158
2744.00,0.0157
2743.00,0.0157
2742.00,0.0157
2741.00,0.0157
2740.00,0.0157
2739.00,0.0157
2738.00,0.0157
2737.00,0.0157
2736.00,0.0156
2735.00,0.0156
2734.00,0.0156
2733.00,0.0156
2732.00,0.0156
2731.00,0.0155
2730.00,0.0155
2729.00,0.0156
2728.00,0.0156
2727.00,0.0156
2726.00,0.0156
2725.00,0.0156
2724.00,0.0156
2723.00,0.0156
2722.00,0.0156
2721.00,0.0156
2720.00,0.0155
2719.00,0.0155
2718.00,0.0155
2717.00,0.0155
2716.00,0.0155
2715.00,0.0155
2714.00,0.0155
2713.00,0.0155
2712.00,0.0155
2711.00,0.0155
2710.00,0.0155
2709.00,0.0155
2708.00,0.0155
2707.00,0.0155
2706.00,0.0155
2705.00,0.0155
2704.00,0.0155
2703.00,0.0155
2702.00,0.0155
2701.00,0.0155
2700.00,0.0155
2699.00,0.0154
2698.00,0.0154
2697.00,0.0154
2696.00,0.0154
2695.00,0.0154
2694.00,0.0154
2693.00,0.0154
2692.00,0.0154
2691.00,0.0154
2690.00,0.0154
2689.00,0.0154
2688.00,0.0154
2687.00,0.0154
2686.00,0.0154
2685.00,0.0153
2684.00,0.0153
2683.00,0.0153
2682.00,0.0153
2681.00,0.0153
2680.00,0.0153
2679.00,0.0154
2678.00,0.0154
2677.00,0.0154
2676.00,0.0154
2675.00,0.0153
2674.00,0.0153
2673.00,0.0153
2672.00,0.0153
2671.00,0.0153
2670.00,0.0152
2669.00,0.0152
2668.00,0.0152
2667.00,0.0152
2666.00,0.0152
2665.00,0.0152
2664.00,0.0152
2663.00,0.0153
2662.00,0.0153
2661.00,0.0153
2660.00,0.0153
2659.00,0.0154
2658.00,0.0154
2657.00,0.0154
2656.00,0.0154
2655.00,0.0153
2654.00,0.0153
2653.00,0.0154
2652.00,0.0154
2651.00,0.0154
2650.00,0.0154
2649.00,0.0155
2648.00,0.0155
2647.00,0.0155
2646.00,0.0155
2645.00,0.0155
2644.00,0.0155
2643.00,0.0156
2642.00,0.0156
2641.00,0.0156
2640.00,0.0156
2639.00,0.0156
2638.00,0.0155
2637.00,0.0155
2636.00,0.0155
2635.00,0.0155
2634.00,0.0155
2633.00,0.0154
2632.00,0.0154
2631.00,0.0154
2630.00,0.0154
2629.00,0.0155
2628.00,0.0155
2627.00,0.0155
2626.00,0.0155
2625.00,0.0155
2624.00,0.0155
2623.00,0.0155
2622.00,0.0154
2621.00,0.0154
2620.00,0.0154
2619.00,0.0154
2618.00,0.0155
2617.00,0.0155
2616.00,0.0155
2615.00,0.0155
2614.00,0.0155
2613.00,0.0155
2612.00,0.0155
2611.00,0.0155
2610.00,0.0154
2609.00,0.0155
2608.00,0.0155
2607.00,0.0155
2606.00,0.0155
2605.00,0.0155
2604.00,0.0155
2603.00,0.0155
2602.00,0.0155
2601.00,0.0155
2600.00,0.0155
2599.00,0.0155
2598.00,0.0155
2597.00,0.0154
2596.00,0.0154
2595.00,0.0154
2594.00,0.0155
2593.00,0.0155
2592.00,0.0156
2591.00,0.0156
2590.00,0.0156
2589.00,0.0155
2588.00,0.0155
2587.00,0.0154
2586.00,0.0154
2585.00,0.0154
2584.00,0.0154
2583.00,0.0154
2582.00,0.0154
2581.00,0.0154
2580.00,0.0154
2579.00,0.0154
2578.00,0.0155
2577.00,0.0155
2576.00,0.0156
2575.00,0.0155
2574.00,0.0155
2573.00,0.0155
2572.00,0.0154
2571.00,0.0154
2570.00,0.0154
2569.00,0.0154
2568.00,0.0154
2567.00,0.0154
2566.00,0.0154
2565.00,0.0155
2564.00,0.0155
2563.00,0.0155
2562.00,0.0156
2561.00,0.0155
2560.00,0.0155
2559.00,0.0155
2558.00,0.0154
2557.00,0.0154
2556.00,0.0154
2555.00,0.0155
2554.00,0.0155
2553.00,0.0155
2552.00,0.0155
2551.00,0.0156
2550.00,0.0156
2549.00,0.0156
2548.00,0.0156
2547.00,0.0155
2546.00,0.0154
2545.00,0.0153
2544.00,0.0153
2543.00,0.0154
2542.00,0.0155
2541.00,0.0156
2540.00,0.0156
2539.00,0.0156
2538.00,0.0156
2537.00,0.0156
2536.00,0.0156
2535.00,0.0156
2534.00,0.0156
2533.00,0.0156
2532.00,0.0156
2531.00,0.0156
2530.00,0.0156
2529.00,0.0156
2528.00,0.0156
2527.00,0.0156
2526.00,0.0156
2525.00,0.0156
2524.00,0.0156
2523.00,0.0156
2522.00,0.0156
2521.00,0.0156
2520.00,0.0156
2519.00,0.0155
2518.00,0.0155
2517.00,0.0154
2516.00,0.0154
2515.00,0.0154
2514.00,0.0154
2513.00,0.0154
2512.00,0.0155
2511.00,0.0154
2510.00,0.0154
2509.00,0.0153
2508.00,0.0153
2507.00,0.0153
2506.00,0.0154
2505.00,0.0154
2504.00,0.0154
2503.00,0.0155
2502.00,0.0156
2501.00,0.0156
2500.00,0.0155
2499.00,0.0155
2498.00,0.0154
2497.00,0.0154
2496.00,0.0154
2495.00,0.0154
2494.00,0.0154
2493.00,0.0154
2492.00,0.0155
2491.00,0.0155
2490.00,0.0155
2489.00,0.0155
2488.00,0.0154
2487.00,0.0154
2486.00,0.0153
2485.00,0.0153
2484.00,0.0153
2483.00,0.0154
2482.00,0.0154
2481.00,0.0155
2480.00,0.0155
2479.00,0.0155
2478.00,0.0154
2477.00,0.0153
2476.00,0.0153
2475.00,0.0153
2474.00,0.0153
2473.00,0.0153
2472.00,0.0153
2471.00,0.0153
2470.00,0.0152
2469.00,0.0152
2468.00,0.0152
2467.00,0.0152
2466.00,0.0153
2465.00,0.0153
2464.00,0.0153
2463.00,0.0153
2462.00,0.0153
2461.00,0.0153
2460.00,0.0153
2459.00,0.0154
2458.00,0.0155
2457.00,0.0155
2456.00,0.0154
2455.00,0.0153
2454.00,0.0153
2453.00,0.0153
2452.00,0.0153
2451.00,0.0154
2450.00,0.0154
2449.00,0.0153
2448.00,0.0153
2447.00,0.0153
2446.00,0.0153
2445.00,0.0153
2444.00,0.0153
2443.00,0.0152
2442.00,0.0152
2441.00,0.0152
2440.00,0.0152
2439.00,0.0151
2438.00,0.0151
2437.00,0.0151
2436.00,0.0151
2435.00,0.0151
2434.00,0.0151
2433.00,0.0151
2432.00,0.0151
2431.00,0.0151
2430.00,0.0152
2429.00,0.0152
2428.00,0.0152
2427.00,0.0152
2426.00,0.0152
2425.00,0.0152
2424.00,0.0152
2423.00,0.0152
2422.00,0.0152
2421.00,0.0151
2420.00,0.0151
2419.00,0.0151
2418.00,0.0151
2417.00,0.0151
2416.00,0.0151
2415.00,0.0151
2414.00,0.0151
2413.00,0.0152
2412.00,0.0152
2411.00,0.0152
2410.00,0.0152
2409.00,0.0151
2408.00,0.0151
2407.00,0.0151
2406.00,0.0151
2405.00,0.0151
2404.00,0.0151
2403.00,0.0150
2402.00,0.0150
2401.00,0.0149
2400.00,0.0149
2399.00,0.0149
2398.00,0.0149
2397.00,0.0149
2396.00,0.0149
2395.00,0.0150
2394.00,0.0150
2393.00,0.0150
2392.00,0.0150
2391.00,0.0149
2390.00,0.0149
2389.00,0.0148
2388.00,0.0147
2387.00,0.0146
2386.00,0.0145
2385.00,0.0144
2384.00,0.0142
2383.00,0.0141
2382.00,0.0140
2381.00,0.0139
2380.00,0.0139
2379.00,0.0139
2378.00,0.0139
2377.00,0.0139
2376.00,0.0139
2375.00,0.0140
2374.00,0.0142
2373.00,0.0144
2372.00,0.0145
2371.00,0.0146
2370.00,0.0145
2369.00,0.0145
2368.00,0.0145
2367.00,0.0145
2366.00,0.0145
2365.00,0.0145
2364.00,0.0144
2363.00,0.0144
2362.00,0.0145
2361.00,0.0148
2360.00,0.0150
2359.00,0.0151
2358.00,0.0151
2357.00,0.0151
2356.00,0.0151
2355.00,0.0151
2354.00,0.0149
2353.00,0.0147
2352.00,0.0146
2351.00,0.0147
2350.00,0.0148
2349.00,0.0147
2348.00,0.0143
2347.00,0.0140
2346.00,0.0139
2345.00,0.0141
2344.00,0.0145
2343.00,0.0147
2342.00,0.0149
2341.00,0.0150
2340.00,0.0150
2339.00,0.0150
2338.00,0.0149
2337.00,0.0149
2336.00,0.0149
2335.00,0.0148
2334.00,0.0148
2333.00,0.0149
2332.00,0.0150
2331.00,0.0150
2330.00,0.0151
2329.00,0.0151
2328.00,0.0152
2327.00,0.0152
2326.00,0.0152
2325.00,0.0151
2324.00,0.0151
2323.00,0.0152
2322.00,0.0152
2321.00,0.0151
2320.00,0.0151
2319.00,0.0150
2318.00,0.0150
2317.00,0.0150
2316.00,0.0150
2315.00,0.0150
2314.00,0.0150
2313.00,0.0150
2312.00,0.0150
2311.00,0.0150
2310.00,0.0149
2309.00,0.0148
2308.00,0.0147
2307.00,0.0147
2306.00,0.0148
2305.00,0.0149
2304.00,0.0149
2303.00,0.0149
2302.00,0.0149
2301.00,0.0148
2300.00,0.0148
2299.00,0.0148
2298.00,0.0148
2297.00,0.0148
2296.00,0.0147
2295.00,0.0147
2294.00,0.0147
2293.00,0.0147
2292.00,0.0147
2291.00,0.0147
2290.00,0.0148
2289.00,0.0148
2288.00,0.0148
2287.00,0.0148
2286.00,0.0149
2285.00,0.0149
2284.00,0.0149
2283.00,0.0148
2282.00,0.0148
2281.00,0.0149
2280.00,0.0149
2279.00,0.0149
2278.00,0.0149
2277.00,0.0149
2276.00,0.0149
2275.00,0.0149
2274.00,0.0150
2273.00,0.0150
2272.00,0.0150
2271.00,0.0149
2270.00,0.0148
2269.00,0.0147
2268.00,0.0147
2267.00,0.0147
2266.00,0.0147
2265.00,0.0147
2264.00,0.0147
2263.00,0.0148
2262.00,0.0148
2261.00,0.0148
2260.00,0.0149
2259.00,0.0149
2258.00,0.0150
2257.00,0.0150
2256.00,0.0150
2255.00,0.0150
2254.00,0.0149
2253.00,0.0148
2252.00,0.0147
2251.00,0.0146
2250.00,0.0146
2249.00,0.0146
2248.00,0.0147
2247.00,0.0147
2246.00,0.0147
2245.00,0.0146
2244.00,0.0146
2243.00,0.0146
2242.00,0.0147
2241.00,0.0148
2240.00,0.0148
2239.00,0.0147
2238.00,0.0146
2237.00,0.0146
2236.00,0.0145
2235.00,0.0146
2234.00,0.0146
2233.00,0.0147
2232.00,0.0147
2231.00,0.0148
2230.00,0.0149
2229.00,0.0149
2228.00,0.0149
2227.00,0.0149
2226.00,0.0149
2225.00,0.0148
2224.00,0.0147
2223.00,0.0147
2222.00,0.0147
2221.00,0.0148
2220.00,0.0148
2219.00,0.0147
2218.00,0.0147
2217.00,0.0147
2216.00,0.0148
2215.00,0.0149
2214.00,0.0149
2213.00,0.0149
2212.00,0.0149
2211.00,0.0148
2210.00,0.0147
2209.00,0.0146
2208.00,0.0145
2207.00,0.0145
2206.00,0.0145
2205.00,0.0146
2204.00,0.0147
2203.00,0.0147
2202.00,0.0147
2201.00,0.0146
2200.00,0.0147
2199.00,0.0147
2198.00,0.0148
2197.00,0.0148
2196.00,0.0148
2195.00,0.0149
2194.00,0.0148
2193.00,0.0147
2192.00,0.0147
2191.00,0.0148
2190.00,0.0150
2189.00,0.0151
2188.00,0.0151
2187.00,0.0150
2186.00,0.0148
2185.00,0.0148
2184.00,0.0148
2183.00,0.0149
2182.00,0.0150
2181.00,0.0151
2180.00,0.0151
2179.00,0.0151
2178.00,0.0150
2177.00,0.0148
2176.00,0.0148
2175.00,0.0148
2174.00,0.0150
2173.00,0.0151
2172.00,0.0152
2171.00,0.0151
2170.00,0.0150
2169.00,0.0149
2168.00,0.0148
2167.00,0.0149
2166.00,0.0150
2165.00,0.0152
2164.00,0.0153
2163.00,0.0154
2162.00,0.0154
2161.00,0.0151
2160.00,0.0146
2159.00,0.0142
2158.00,0.0140
2157.00,0.0140
2156.00,0.0140
2155.00,0.0141
2154.00,0.0142
2153.00,0.0143
2152.00,0.0144
2151.00,0.0143
2150.00,0.0142
2149.00,0.0141
2148.00,0.0140
2147.00,0.0139
2146.00,0.0138
2145.00,0.0137
2144.00,0.0138
2143.00,0.0140
2142.00,0.0142
2141.00,0.0142
2140.00,0.0141
2139.00,0.0140
2138.00,0.0139
2137.00,0.0139
2136.00,0.0138
2135.00,0.0138
2134.00,0.0138
2133.00,0.0137
2132.00,0.0136
2131.00,0.0136
2130.00,0.0136
2129.00,0.0136
2128.00,0.0136
2127.00,0.0135
2126.00,0.0135
2125.00,0.0136
2124.00,0.0136
2123.00,0.0137
2122.00,0.0138
2121.00,0.0139
2120.00,0.0140
2119.00,0.0141
2118.00,0.0141
2117.00,0.0141
2116.00,0.0141
2115.00,0.0141
2114.00,0.0141
2113.00,0.0140
2112.00,0.0139
2111.00,0.0139
2110.00,0.0139
2109.00,0.0139
2108.00,0.0140
2107.00,0.0139
2106.00,0.0138
2105.00,0.0138
2104.00,0.0137
2103.00,0.0137
2102.00,0.0137
2101.00,0.0137
2100.00,0.0137
2099.00,0.0137
2098.00,0.0137
2097.00,0.0138
2096.00,0.0138
2095.00,0.0137
2094.00,0.0137
2093.00,0.0136
2092.00,0.0137
2091.00,0.0137
2090.00,0.0137
2089.00,0.0138
2088.00,0.0138
2087.00,0.0138
2086.00,0.0138
2085.00,0.0138
2084.00,0.0137
2083.00,0.0136
2082.00,0.0136
2081.00,0.0137
2080.00,0.0137
2079.00,0.0138
2078.00,0.0139
2077.00,0.0139
2076.00,0.0140
2075.00,0.0139
2074.00,0.0139
2073.00,0.0139
2072.00,0.0138
2071.00,0.0138
2070.00,0.0138
2069.00,0.0137
2068.00,0.0136
2067.00,0.0136
2066.00,0.0136
2065.00,0.0136
2064.00,0.0136
2063.00,0.0136
2062.00,0.0137
2061.00,0.0138
2060.00,0.0138
2059.00,0.0138
2058.00,0.0138
2057.00,0.0139
2056.00,0.0139
2055.00,0.0140
2054.00,0.0141
2053.00,0.0142
2052.00,0.0142
2051.00,0.0142
2050.00,0.0141
2049.00,0.0141
2048.00,0.0140
2047.00,0.0141
2046.00,0.0142
2045.00,0.0142
2044.00,0.0142
2043.00,0.0141
2042.00,0.0141
2041.00,0.0141
2040.00,0.0142
2039.00,0.0142
2038.00,0.0142
2037.00,0.0141
2036.00,0.0140
2035.00,0.0139
2034.00,0.0138
2033.00,0.0137
2032.00,0.0137
2031.00,0.0136
2030.00,0.0136
2029.00,0.0136
2028.00,0.0137
2027.00,0.0136
2026.00,0.0136
2025.00,0.0136
2024.00,0.0136
2023.00,0.0136
2022.00,0.0136
2021.00,0.0136
2020.00,0.0136
2019.00,0.0136
2018.00,0.0136
2017.00,0.0135
2016.00,0.0135
2015.00,0.0136
2014.00,0.0137
2013.00,0.0138
2012.00,0.0137
2011.00,0.0135
2010.00,0.0134
2009.00,0.0134
2008.00,0.0134
2007.00,0.0133
2006.00,0.0132
2005.00,0.0132
2004.00,0.0132
2003.00,0.0134
2002.00,0.0135
2001.00,0.0136
2000.00,0.0136
1999.00,0.0137
1998.00,0.0137
1997.00,0.0138
1996.00,0.0138
1995.00,0.0139
1994.00,0.0140
1993.00,0.0142
1992.00,0.0142
1991.00,0.0140
1990.00,0.0139
1989.00,0.0138
1988.00,0.0137
1987.00,0.0137
1986.00,0.0136
1985.00,0.0136
1984.00,0.0136
1983.00,0.0137
1982.00,0.0138
1981.00,0.0139
1980.00,0.0139
1979.00,0.0139
1978.00,0.0138
1977.00,0.0138
1976.00,0.0137
1975.00,0.0137
1974.00,0.0136
1973.00,0.0135
1972.00,0.0136
1971.00,0.0136
1970.00,0.0138
1969.00,0.0139
1968.00,0.0140
1967.00,0.0139
1966.00,0.0137
1965.00,0.0135
1964.00,0.0134
1963.00,0.0135
1962.00,0.0135
1961.00,0.0135
1960.00,0.0133
1959.00,0.0132
1958.00,0.0130
1957.00,0.0128
1956.00,0.0126
1955.00,0.0124
1954.00,0.0124
1953.00,0.0126
1952.00,0.0127
1951.00,0.0127
1950.00,0.0126
1949.00,0.0126
1948.00,0.0126
1947.00,0.0127
1946.00,0.0129
1945.00,0.0130
1944.00,0.0131
1943.00,0.0130
1942.00,0.0130
1941.00,0.0129
1940.00,0.0129
1939.00,0.0129
1938.00,0.0129
1937.00,0.0129
1936.00,0.0128
1935.00,0.0128
1934.00,0.0127
1933.00,0.0127
1932.00,0.0127
1931.00,0.0127
1930.00,0.0127
1929.00,0.0126
1928.00,0.0126
1927.00,0.0126
1926.00,0.0127
1925.00,0.0129
1924.00,0.0130
1923.00,0.0129
1922.00,0.0127
1921.00,0.0126
1920.00,0.0126
1919.00,0.0125
1918.00,0.0124
1917.00,0.0123
1916.00,0.0123
1915.00,0.0123
1914.00,0.0123
1913.00,0.0122
1912.00,0.0122
1911.00,0.0123
1910.00,0.0123
1909.00,0.0123
1908.00,0.0122
1907.00,0.0121
1906.00,0.0120
1905.00,0.0121
1904.00,0.0120
1903.00,0.0120
1902.00,0.0120
1901.00,0.0120
1900.00,0.0119
1899.00,0.0119
1898.00,0.0119
1897.00,0.0120
1896.00,0.0120
1895.00,0.0120
1894.00,0.0120
1893.00,0.0120
1892.00,0.0119
1891.00,0.0118
1890.00,0.0117
1889.00,0.0116
1888.00,0.0116
1887.00,0.0116
1886.00,0.0117
1885.00,0.0117
1884.00,0.0117
1883.00,0.0117
1882.00,0.0117
1881.00,0.0117
1880.00,0.0116
1879.00,0.0115
1878.00,0.0115
1877.00,0.0115
1876.00,0.0115
1875.00,0.0114
1874.00,0.0115
1873.00,0.0116
1872.00,0.0117
1871.00,0.0117
1870.00,0.0115
1869.00,0.0113
1868.00,0.0112
1867.00,0.0112
1866.00,0.0112
1865.00,0.0113
1864.00,0.0113
1863.00,0.0112
1862.00,0.0112
1861.00,0.0112
1860.00,0.0112
1859.00,0.0111
1858.00,0.0111
1857.00,0.0111
1856.00,0.0111
1855.00,0.0111
1854.00,0.0110
1853.00,0.0110
1852.00,0.0109
1851.00,0.0108
1850.00,0.0108
1849.00,0.0108
1848.00,0.0108
1847.00,0.0108
1846.00,0.0109
1845.00,0.0108
1844.00,0.0107
1843.00,0.0106
1842.00,0.0106
1841.00,0.0106
1840.00,0.0107
1839.00,0.0106
1838.00,0.0105
1837.00,0.0105
1836.00,0.0105
1835.00,0.0105
1834.00,0.0105
1833.00,0.0106
1832.00,0.0107
1831.00,0.0107
1830.00,0.0105
1829.00,0.0104
1828.00,0.0104
1827.00,0.0105
1826.00,0.0104
1825.00,0.0103
1824.00,0.0102
1823.00,0.0101
1822.00,0.0101
1821.00,0.0100
1820.00,0.0100
1819.00,0.0099
1818.00,0.0099
1817.00,0.0099
1816.00,0.0099
1815.00,0.0099
1814.00,0.0098
1813.00,0.0098
1812.00,0.0098
1811.00,0.0097
1810.00,0.0097
1809.00,0.0096
1808.00,0.0096
1807.00,0.0096
1806.00,0.0096
1805.00,0.0097
1804.00,0.0098
1803.00,0.0098
1802.00,0.0098
1801.00,0.0098
1800.00,0.0098
1799.00,0.0097
1798.00,0.0096
1797.00,0.0097
1796.00,0.0098
1795.00,0.0098
1794.00,0.0098
1793.00,0.0097
1792.00,0.0097
1791.00,0.0097
1790.00,0.0098
1789.00,0.0099
1788.00,0.0099
1787.00,0.0099
1786.00,0.0098
1785.00,0.0099
1784.00,0.0099
1783.00,0.0100
1782.00,0.0101
1781.00,0.0102
1780.00,0.0102
1779.00,0.0103
1778.00,0.0103
1777.00,0.0104
1776.00,0.0105
1775.00,0.0107
1774.00,0.0108
1773.00,0.0107
1772.00,0.0107
1771.00,0.0107
1770.00,0.0108
1769.00,0.0109
1768.00,0.0109
1767.00,0.0110
1766.00,0.0110
1765.00,0.0111
1764.00,0.0113
1763.00,0.0113
1762.00,0.0112
1761.00,0.0112
1760.00,0.0113
1759.00,0.0114
1758.00,0.0115
1757.00,0.0114
1756.00,0.0114
1755.00,0.0114
1754.00,0.0114
1753.00,0.0115
1752.00,0.0115
1751.00,0.0116
1750.00,0.0117
1749.00,0.0119
1748.00,0.0120
1747.00,0.0121
1746.00,0.0122
1745.00,0.0123
1744.00,0.0125
1743.00,0.0126
1742.00,0.0127
1741.00,0.0127
1740.00,0.0127
1739.00,0.0127
1738.00,0.0128
1737.00,0.0130
1736.00,0.0132
1735.00,0.0133
1734.00,0.0134
1733.00,0.0136
1732.00,0.0139
1731.00,0.0142
1730.00,0.0144
1729.00,0.0146
1728.00,0.0147
1727.00,0.0148
1726.00,0.0149
1725.00,0.0150
1724.00,0.0151
1723.00,0.0153
1722.00,0.0154
1721.00,0.0156
1720.00,0.0157
1719.00,0.0156
1718.00,0.0154
1717.00,0.0155
1716.00,0.0158
1715.00,0.0161
1714.00,0.0162
1713.00,0.0163
1712.00,0.0163
1711.00,0.0163
1710.00,0.0163
1709.00,0.0164
1708.00,0.0166
1707.00,0.0167
1706.00,0.0167
1705.00,0.0168
1704.00,0.0168
1703.00,0.0170
1702.00,0.0171
1701.00,0.0170
1700.00,0.0168
1699.00,0.0167
1698.00,0.0169
1697.00,0.0171
1696.00,0.0171
1695.00,0.0170
1694.00,0.0169
1693.00,0.0170
1692.00,0.0172
1691.00,0.0172
1690.00,0.0172
1689.00,0.0172
1688.00,0.0173
1687.00,0.0174
1686.00,0.0174
1685.00,0.0172
1684.00,0.0172
1683.00,0.0174
1682.00,0.0175
1681.00,0.0176
1680.00,0.0176
1679.00,0.0177
1678.00,0.0177
1677.00,0.0177
1676.00,0.0177
1675.00,0.0177
1674.00,0.0178
1673.00,0.0179
1672.00,0.0180
1671.00,0.0181
1670.00,0.0182
1669.00,0.0184
1668.00,0.0185
1667.00,0.0186
1666.00,0.0186
1665.00,0.0187
1664.00,0.0188
1663.00,0.0188
1662.00,0.0190
1661.00,0.0191
1660.00,0.0191
1659.00,0.0192
1658.00,0.0192
1657.00,0.0192
1656.00,0.0194
1655.00,0.0197
1654.00,0.0198
1653.00,0.0201
1652.00,0.0201
1651.00,0.0200
1650.00,0.0201
1649.00,0.0203
1648.00,0.0204
1647.00,0.0205
1646.00,0.0208
1645.00,0.0209
1644.00,0.0210
1643.00,0.0211
1642.00,0.0211
1641.00,0.0212
1640.00,0.0213
1639.00,0.0213
1638.00,0.0214
1637.00,0.0216
1636.00,0.0219
1635.00,0.0222
1634.00,0.0223
1633.00,0.0224
1632.00,0.0224
1631.00,0.0225
1630.00,0.0226
1629.00,0.0228
1628.00,0.0229
1627.00,0.0231
1626.00,0.0233
1625.00,0.0234
1624.00,0.0235
1623.00,0.0236
1622.00,0.0237
1621.00,0.0237
1620.00,0.0237
1619.00,0.0237
1618.00,0.0237
1617.00,0.0238
1616.00,0.0240
1615.00,0.0242
1614.00,0.0243
1613.00,0.0244
1612.00,0.0244
1611.00,0.0245
1610.00,0.0247
1609.00,0.0248
1608.00,0.0249
1607.00,0.0250
1606.00,0.0251
1605.00,0.0251
1604.00,0.0251
1603.00,0.0252
1602.00,0.0253
1601.00,0.0254
1600.00,0.0254
1599.00,0.0255
1598.00,0.0256
1597.00,0.0257
1596.00,0.0257
1595.00,0.0258
1594.00,0.0258
1593.00,0.0258
1592.00,0.0258
1591.00,0.0259
1590.00,0.0260
1589.00,0.0261
1588.00,0.0261
1587.00,0.0261
1586.00,0.0260
1585.00,0.0260
1584.00,0.0260
1583.00,0.0260
1582.00,0.0260
1581.00,0.0260
1580.00,0.0260
1579.00,0.0260
1578.00,0.0260
1577.00,0.0260
1576.00,0.0260
1575.00,0.0260
1574.00,0.0261
1573.00,0.0261
1572.00,0.0261
1571.00,0.0260
1570.00,0.0261
1569.00,0.0261
1568.00,0.0261
1567.00,0.0260
1566.00,0.0260
1565.00,0.0258
1564.00,0.0257
1563.00,0.0256
1562.00,0.0256
1561.00,0.0256
1560.00,0.0254
1559.00,0.0257
1558.00,0.0260
1557.00,0.0257
1556.00,0.0253
1555.00,0.0251
1554.00,0.0250
1553.00,0.0248
1552.00,0.0248
1551.00,0.0248
1550.00,0.0248
1549.00,0.0246
1548.00,0.0244
1547.00,0.0242
1546.00,0.0241
1545.00,0.0239
1544.00,0.0238
1543.00,0.0237
1542.00,0.0233
1541.00,0.0231
1540.00,0.0232
1539.00,0.0234
1538.00,0.0232
1537.00,0.0231
1536.00,0.0230
1535.00,0.0230
1534.00,0.0230
1533.00,0.0231
1532.00,0.0230
1531.00,0.0229
1530.00,0.0227
1529.00,0.0226
1528.00,0.0225
1527.00,0.0224
1526.00,0.0223
1525.00,0.0222
1524.00,0.0222
1523.00,0.0221
1522.00,0.0219
1521.00,0.0219
1520.00,0.0219
1519.00,0.0220
1518.00,0.0220
1517.00,0.0220
1516.00,0.0219
1515.00,0.0217
1514.00,0.0215
1513.00,0.0214
1512.00,0.0213
1511.00,0.0213
1510.00,0.0213
1509.00,0.0215
1508.00,0.0216
1507.00,0.0216
1506.00,0.0214
1505.00,0.0209
1504.00,0.0207
1503.00,0.0206
1502.00,0.0205
1501.00,0.0203
1500.00,0.0202
1499.00,0.0201
1498.00,0.0199
1497.00,0.0199
1496.00,0.0200
1495.00,0.0201
1494.00,0.0201
1493.00,0.0202
1492.00,0.0202
1491.00,0.0203
1490.00,0.0203
1489.00,0.0205
1488.00,0.0206
1487.00,0.0206
1486.00,0.0205
1485.00,0.0203
1484.00,0.0202
1483.00,0.0201
1482.00,0.0201
1481.00,0.0201
1480.00,0.0201
1479.00,0.0201
1478.00,0.0201
1477.00,0.0201
1476.00,0.0201
1475.00,0.0201
1474.00,0.0200
1473.00,0.0200
1472.00,0.0201
1471.00,0.0201
1470.00,0.0200
1469.00,0.0200
1468.00,0.0201
1467.00,0.0201
1466.00,0.0201
1465.00,0.0201
1464.00,0.0202
1463.00,0.0202
1462.00,0.0202
1461.00,0.0203
1460.00,0.0203
1459.00,0.0202
1458.00,0.0201
1457.00,0.0202
1456.00,0.0203
1455.00,0.0204
1454.00,0.0205
1453.00,0.0206
1452.00,0.0207
1451.00,0.0208
1450.00,0.0209
1449.00,0.0211
1448.00,0.0212
1447.00,0.0213
1446.00,0.0213
1445.00,0.0212
1444.00,0.0213
1443.00,0.0213
1442.00,0.0213
1441.00,0.0213
1440.00,0.0213
1439.00,0.0213
1438.00,0.0213
1437.00,0.0214
1436.00,0.0216
1435.00,0.0218
1434.00,0.0219
1433.00,0.0219
1432.00,0.0220
1431.00,0.0220
1430.00,0.0221
1429.00,0.0222
1428.00,0.0222
1427.00,0.0222
1426.00,0.0222
1425.00,0.0222
1424.00,0.0223
1423.00,0.0223
1422.00,0.0223
1421.00,0.0222
1420.00,0.0223
1419.00,0.0225
1418.00,0.0227
1417.00,0.0228
1416.00,0.0229
1415.00,0.0229
1414.00,0.0229
1413.00,0.0228
1412.00,0.0228
1411.00,0.0229
1410.00,0.0229
1409.00,0.0228
1408.00,0.0228
1407.00,0.0229
1406.00,0.0229
1405.00,0.0229
1404.00,0.0230
1403.00,0.0231
1402.00,0.0231
1401.00,0.0231
1400.00,0.0232
1399.00,0.0233
1398.00,0.0234
1397.00,0.0235
1396.00,0.0235
1395.00,0.0236
1394.00,0.0236
1393.00,0.0235
1392.00,0.0235
1391.00,0.0235
1390.00,0.0235
1389.00,0.0236
1388.00,0.0237
1387.00,0.0238
1386.00,0.0239
1385.00,0.0239
1384.00,0.0239
1383.00,0.0239
1382.00,0.0239
1381.00,0.0239
1380.00,0.0239
1379.00,0.0239
1378.00,0.0239
1377.00,0.0240
1376.00,0.0241
1375.00,0.0242
1374.00,0.0243
1373.00,0.0243
1372.00,0.0243
1371.00,0.0243
1370.00,0.0243
1369.00,0.0243
1368.00,0.0243
1367.00,0.0243
1366.00,0.0242
1365.00,0.0242
1364.00,0.0243
1363.00,0.0244
1362.00,0.0245
1361.00,0.0246
1360.00,0.0246
1359.00,0.0246
1358.00,0.0245
1357.00,0.0245
1356.00,0.0244
1355.00,0.0243
1354.00,0.0243
1353.00,0.0243
1352.00,0.0243
1351.00,0.0242
1350.00,0.0242
1349.00,0.0242
1348.00,0.0242
1347.00,0.0242
1346.00,0.0241
1345.00,0.0241
1344.00,0.0241
1343.00,0.0241
1342.00,0.0242
1341.00,0.0242
1340.00,0.0243
1339.00,0.0245
1338.00,0.0245
1337.00,0.0245
1336.00,0.0244
1335.00,0.0243
1334.00,0.0242
1333.00,0.0242
1332.00,0.0242
1331.00,0.0242
1330.00,0.0242
1329.00,0.0241
1328.00,0.0241
1327.00,0.0241
1326.00,0.0241
1325.00,0.0241
1324.00,0.0241
1323.00,0.0241
1322.00,0.0240
1321.00,0.0240
1320.00,0.0239
1319.00,0.0240
1318.00,0.0240
1317.00,0.0241
1316.00,0.0242
1315.00,0.0242
1314.00,0.0242
1313.00,0.0242
1312.00,0.0241
1311.00,0.0241
1310.00,0.0241
1309.00,0.0241
1308.00,0.0241
1307.00,0.0242
1306.00,0.0242
1305.00,0.0242
1304.00,0.0242
1303.00,0.0243
1302.00,0.0243
1301.00,0.0244
1300.00,0.0244
1299.00,0.0244
1298.00,0.0244
1297.00,0.0244
1296.00,0.0244
1295.00,0.0245
1294.00,0.0245
1293.00,0.0245
1292.00,0.0246
1291.00,0.0246
1290.00,0.0247
1289.00,0.0248
1288.00,0.0248
1287.00,0.0249
1286.00,0.0249
1285.00,0.0249
1284.00,0.0249
1283.00,0.0249
1282.00,0.0250
1281.00,0.0251
1280.00,0.0252
1279.00,0.0253
1278.00,0.0254
1277.00,0.0254
1276.00,0.0255
1275.00,0.0255
1274.00,0.0256
1273.00,0.0257
1272.00,0.0257
1271.00,0.0258
1270.00,0.0258
1269.00,0.0258
1268.00,0.0259
1267.00,0.0259
1266.00,0.0260
1265.00,0.0260
1264.00,0.0260
1263.00,0.0260
1262.00,0.0261
1261.00,0.0262
1260.00,0.0263
1259.00,0.0265
1258.00,0.0267
1257.00,0.0268
1256.00,0.0270
1255.00,0.0271
1254.00,0.0273
1253.00,0.0275
1252.00,0.0277
1251.00,0.0279
1250.00,0.0281
1249.00,0.0282
1248.00,0.0283
1247.00,0.0284
1246.00,0.0286
1245.00,0.0287
1244.00,0.0289
1243.00,0.0290
1242.00,0.0292
1241.00,0.0293
1240.00,0.0294
1239.00,0.0295
1238.00,0.0296
1237.00,0.0296
1236.00,0.0297
1235.00,0.0298
1234.00,0.0299
1233.00,0.0299
1232.00,0.0300
1231.00,0.0301
1230.00,0.0302
1229.00,0.0303
1228.00,0.0304
1227.00,0.0304
1226.00,0.0305
1225.00,0.0306
1224.00,0.0308
1223.00,0.0309
1222.00,0.0309
1221.00,0.0310
1220.00,0.0310
1219.00,0.0311
1218.00,0.0311
1217.00,0.0312
1216.00,0.0313
1215.00,0.0313
1214.00,0.0314
1213.00,0.0314
1212.00,0.0316
1211.00,0.0317
1210.00,0.0318
1209.00,0.0318
1208.00,0.0319
1207.00,0.0320
1206.00,0.0321
1205.00,0.0321
1204.00,0.0321
1203.00,0.0321
1202.00,0.0322
1201.00,0.0322
1200.00,0.0323
1199.00,0.0324
1198.00,0.0325
1197.00,0.0326
1196.00,0.0327
1195.00,0.0328
1194.00,0.0329
1193.00,0.0329
1192.00,0.0330
1191.00,0.0332
1190.00,0.0333
1189.00,0.0334
1188.00,0.0335
1187.00,0.0336
1186.00,0.0337
1185.00,0.0338
1184.00,0.0338
1183.00,0.0339
1182.00,0.0339
1181.00,0.0340
1180.00,0.0341
1179.00,0.0342
1178.00,0.0344
1177.00,0.0345
1176.00,0.0346
1175.00,0.0347
1174.00,0.0347
1173.00,0.0348
1172.00,0.0349
1171.00,0.0350
1170.00,0.0351
1169.00,0.0353
1168.00,0.0355
1167.00,0.0356
1166.00,0.0357
1165.00,0.0358
1164.00,0.0358
1163.00,0.0358
1162.00,0.0358
1161.00,0.0358
1160.00,0.0359
1159.00,0.0359
1158.00,0.0360
1157.00,0.0360
1156.00,0.0361
1155.00,0.0362
1154.00,0.0364
1153.00,0.0365
1152.00,0.0367
1151.00,0.0368
1150.00,0.0369
1149.00,0.0371
1148.00,0.0373
1147.00,0.0375
1146.00,0.0377
1145.00,0.0379
1144.00,0.0380
1143.00,0.0381
1142.00,0.0382
1141.00,0.0382
1140.00,0.0384
1139.00,0.0385
1138.00,0.0388
1137.00,0.0390
1136.00,0.0393
1135.00,0.0395
1134.00,0.0397
1133.00,0.0400
1132.00,0.0402
1131.00,0.0405
1130.00,0.0408
1129.00,0.0412
1128.00,0.0416
1127.00,0.0420
1126.00,0.0425
1125.00,0.0430
1124.00,0.0434
1123.00,0.0438
1122.00,0.0443
1121.00,0.0448
1120.00,0.0453
1119.00,0.0458
1118.00,0.0463
1117.00,0.0467
1116.00,0.0470
1115.00,0.0472
1114.00,0.0472
1113.00,0.0473
1112.00,0.0473
1111.00,0.0475
1110.00,0.0477
1109.00,0.0480
1108.00,0.0484
1107.00,0.0487
1106.00,0.0491
1105.00,0.0494
1104.00,0.0497
1103.00,0.0500
1102.00,0.0502
1101.00,0.0504
1100.00,0.0506
1099.00,0.0508
1098.00,0.0510
1097.00,0.0511
1096.00,0.0511
1095.00,0.0512
1094.00,0.0514
1093.00,0.0516
1092.00,0.0517
1091.00,0.0518
1090.00,0.0518
1089.00,0.0519
1088.00,0.0521
1087.00,0.0522
1086.00,0.0523
1085.00,0.0523
1084.00,0.0525
1083.00,0.0526
1082.00,0.0527
1081.00,0.0527
1080.00,0.0527
1079.00,0.0527
1078.00,0.0528
1077.00,0.0529
1076.00,0.0530
1075.00,0.0531
1074.00,0.0533
1073.00,0.0534
1072.00,0.0537
1071.00,0.0539
1070.00,0.0541
1069.00,0.0543
1068.00,0.0544
1067.00,0.0545
1066.00,0.0546
1065.00,0.0547
1064.00,0.0550
1063.00,0.0552
1062.00,0.0554
1061.00,0.0555
1060.00,0.0557
1059.00,0.0559
1058.00,0.0561
1057.00,0.0563
1056.00,0.0565
1055.00,0.0568
1054.00,0.0571
1053.00,0.0575
1052.00,0.0579
1051.00,0.0583
1050.00,0.0585
1049.00,0.0588
1048.00,0.0591
1047.00,0.0594
1046.00,0.0597
1045.00,0.0599
1044.00,0.0602
1043.00,0.0605
1042.00,0.0608
1041.00,0.0611
1040.00,0.0615
1039.00,0.0618
1038.00,0.0621
1037.00,0.0625
1036.00,0.0629
1035.00,0.0631
1034.00,0.0632
1033.00,0.0632
1032.00,0.0630
1031.00,0.0627
1030.00,0.0622
1029.00,0.0618
1028.00,0.0614
1027.00,0.0609
1026.00,0.0603
1025.00,0.0597
1024.00,0.0593
1023.00,0.0590
1022.00,0.0587
1021.00,0.0585
1020.00,0.0583
1019.00,0.0582
1018.00,0.0581
1017.00,0.0582
1016.00,0.0583
1015.00,0.0585
1014.00,0.0586
1013.00,0.0587
1012.00,0.0588
1011.00,0.0590
1010.00,0.0591
1009.00,0.0592
1008.00,0.0592
1007.00,0.0591
1006.00,0.0590
1005.00,0.0588
1004.00,0.0586
1003.00,0.0584
1002.00,0.0580
1001.00,0.0576
1000.00,0.0572
999.00,0.0567
998.00,0.0561
997.00,0.0554
996.00,0.0547
995.00,0.0540
994.00,0.0534
993.00,0.0529
992.00,0.0524
991.00,0.0520
990.00,0.0514
989.00,0.0509
988.00,0.0506
987.00,0.0503
986.00,0.0499
985.00,0.0495
984.00,0.0491
983.00,0.0487
982.00,0.0483
981.00,0.0479
980.00,0.0476
979.00,0.0472
978.00,0.0469
977.00,0.0466
976.00,0.0463
975.00,0.0460
974.00,0.0457
973.00,0.0456
972.00,0.0454
971.00,0.0454
970.00,0.0454
969.00,0.0453
968.00,0.0452
967.00,0.0450
966.00,0.0448
965.00,0.0446
964.00,0.0444
963.00,0.0442
962.00,0.0439
961.00,0.0437
960.00,0.0436
959.00,0.0435
958.00,0.0433
957.00,0.0432
956.00,0.0431
955.00,0.0430
954.00,0.0430
953.00,0.0430
952.00,0.0430
951.00,0.0430
950.00,0.0430
949.00,0.0430
948.00,0.0431
947.00,0.0433
946.00,0.0435
945.00,0.0437
944.00,0.0439
943.00,0.0439
942.00,0.0440
941.00,0.0441
940.00,0.0443
939.00,0.0444
938.00,0.0444
937.00,0.0444
936.00,0.0443
935.00,0.0443
934.00,0.0441
933.00,0.0439
932.00,0.0437
931.00,0.0435
930.00,0.0434
929.00,0.0434
928.00,0.0435
927.00,0.0436
926.00,0.0437
925.00,0.0438
924.00,0.0440
923.00,0.0441
922.00,0.0442
921.00,0.0444
920.00,0.0446
919.00,0.0450
918.00,0.0454
917.00,0.0457
916.00,0.0460
915.00,0.0462
914.00,0.0463
913.00,0.0463
912.00,0.0462
911.00,0.0461
910.00,0.0459
909.00,0.0456
908.00,0.0452
907.00,0.0448
906.00,0.0444
905.00,0.0440
904.00,0.0437
903.00,0.0434
902.00,0.0430
901.00,0.0427
900.00,0.0424
899.00,0.0421
898.00,0.0419
897.00,0.0417
896.00,0.0414
895.00,0.0411
894.00,0.0408
893.00,0.0406
892.00,0.0404
891.00,0.0403
890.00,0.0402
889.00,0.0401
888.00,0.0399
887.00,0.0397
886.00,0.0394
885.00,0.0392
884.00,0.0391
883.00,0.0390
882.00,0.0390
881.00,0.0390
880.00,0.0390
879.00,0.0390
878.00,0.0388
877.00,0.0385
876.00,0.0383
875.00,0.0382
874.00,0.0380
873.00,0.0379
872.00,0.0378
871.00,0.0377
870.00,0.0375
869.00,0.0374
868.00,0.0373
867.00,0.0372
866.00,0.0371
865.00,0.0370
864.00,0.0369
863.00,0.0368
862.00,0.0368
861.00,0.0368
860.00,0.0369
859.00,0.0371
858.00,0.0371
857.00,0.0370
856.00,0.0368
855.00,0.0367
854.00,0.0366
853.00,0.0365
852.00,0.0364
851.00,0.0364
850.00,0.0364
849.00,0.0366
848.00,0.0368
847.00,0.0370
846.00,0.0371
845.00,0.0371
844.00,0.0371
843.00,0.0372
842.00,0.0373
841.00,0.0374
840.00,0.0375
839.00,0.0376
838.00,0.0377
837.00,0.0378
836.00,0.0380
835.00,0.0381
834.00,0.0383
833.00,0.0384
832.00,0.0387
831.00,0.0389
830.00,0.0390
829.00,0.0390
828.00,0.0390
827.00,0.0390
826.00,0.0388
825.00,0.0387
824.00,0.0386
823.00,0.0387
822.00,0.0388
821.00,0.0390
820.00,0.0393
819.00,0.0395
818.00,0.0397
817.00,0.0398
816.00,0.0398
815.00,0.0398
814.00,0.0398
813.00,0.0398
812.00,0.0399
811.00,0.0401
810.00,0.0406
809.00,0.0412
808.00,0.0416
807.00,0.0419
806.00,0.0421
805.00,0.0424
804.00,0.0427
803.00,0.0432
802.00,0.0438
801.00,0.0443
800.00,0.0447
799.00,0.0448
798.00,0.0448
797.00,0.0447
796.00,0.0448
795.00,0.0449
794.00,0.0449
793.00,0.0449
792.00,0.0448
791.00,0.0446
790.00,0.0445
789.00,0.0446
788.00,0.0447
787.00,0.0447
786.00,0.0448
785.00,0.0449
784.00,0.0450
783.00,0.0452
782.00,0.0453
781.00,0.0454
780.00,0.0454
779.00,0.0454
778.00,0.0453
777.00,0.0452
776.00,0.0452
775.00,0.0451
774.00,0.0450
773.00,0.0450
772.00,0.0449
771.00,0.0449
770.00,0.0448
769.00,0.0446
768.00,0.0446
767.00,0.0445
766.00,0.0444
765.00,0.0444
764.00,0.0444
763.00,0.0444
762.00,0.0443
761.00,0.0444
760.00,0.0446
759.00,0.0449
758.00,0.0453
757.00,0.0456
756.00,0.0458
755.00,0.0458
754.00,0.0458
753.00,0.0457
752.00,0.0457
751.00,0.0458
750.00,0.0459
749.00,0.0459
748.00,0.0458
747.00,0.0456
746.00,0.0455
745.00,0.0454
744.00,0.0455
743.00,0.0456
742.00,0.0456
741.00,0.0454
740.00,0.0453
739.00,0.0452
738.00,0.0451
737.00,0.0450
736.00,0.0450
735.00,0.0450
734.00,0.0450
733.00,0.0449
732.00,0.0448
731.00,0.0448
730.00,0.0449
729.00,0.0449
728.00,0.0450
727.00,0.0451
726.00,0.0453
725.00,0.0454
724.00,0.0454
723.00,0.0454
722.00,0.0454
721.00,0.0455
720.00,0.0457
719.00,0.0458
718.00,0.0457
717.00,0.0457
716.00,0.0458
715.00,0.0460
714.00,0.0463
713.00,0.0467
712.00,0.0470
711.00,0.0470
710.00,0.0469
709.00,0.0469
708.00,0.0470
707.00,0.0474
706.00,0.0481
705.00,0.0488
704.00,0.0495
703.00,0.0499
702.00,0.0501
701.00,0.0502
700.00,0.0504
699.00,0.0507
698.00,0.0511
697.00,0.0515
696.00,0.0517
695.00,0.0517
694.00,0.0514
693.00,0.0512
692.00,0.0512
691.00,0.0515
690.00,0.0518
689.00,0.0519
688.00,0.0518
687.00,0.0516
686.00,0.0515
685.00,0.0515
684.00,0.0514
683.00,0.0513
682.00,0.0513
681.00,0.0516
680.00,0.0519
679.00,0.0522
678.00,0.0523
677.00,0.0524
676.00,0.0527
675.00,0.0529
674.00,0.0531
673.00,0.0529
672.00,0.0524
671.00,0.0518
670.00,0.0515
669.00,0.0521
668.00,0.0536
667.00,0.0546
666.00,0.0546
665.00,0.0541
664.00,0.0537
663.00,0.0533
662.00,0.0531
661.00,0.0533
660.00,0.0540
659.00,0.0547
658.00,0.0549
657.00,0.0546
656.00,0.0541
655.00,0.0538
654.00,0.0538
653.00,0.0537
652.00,0.0536
651.00,0.0536
650.00,0.0537
