Created as New Dataset,
cm-1,A
4000.00,0.0283
3999.00,0.0283
3998.00,0.0283
3997.00,0.0284
3996.00,0.0284
3995.00,0.0284
3994.00,0.0284
3993.00,0.0284
3992.00,0.0284
3991.00,0.0283
3990.00,0.0282
3989.00,0.0282
3988.00,0.0282
3987.00,0.0282
3986.00,0.0282
3985.00,0.0282
3984.00,0.0282
3983.00,0.0282
3982.00,0.0283
3981.00,0.0283
3980.00,0.0283
3979.00,0.0283
3978.00,0.0283
3977.00,0.0282
3976.00,0.0282
3975.00,0.0283
3974.00,0.0283
3973.00,0.0283
3972.00,0.0283
3971.00,0.0283
3970.00,0.0282
3969.00,0.0281
3968.00,0.0281
3967.00,0.0280
3966.00,0.0280
3965.00,0.0281
3964.00,0.0281
3963.00,0.0282
3962.00,0.0282
3961.00,0.0282
3960.00,0.0282
3959.00,0.0282
3958.00,0.0282
3957.00,0.0282
3956.00,0.0281
3955.00,0.0281
3954.00,0.0280
3953.00,0.0280
3952.00,0.0281
3951.00,0.0282
3950.00,0.0283
3949.00,0.0284
3948.00,0.0284
3947.00,0.0284
3946.00,0.0284
3945.00,0.0284
3944.00,0.0284
3943.00,0.0284
3942.00,0.0283
3941.00,0.0283
3940.00,0.0283
3939.00,0.0282
3938.00,0.0281
3937.00,0.0280
3936.00,0.0280
3935.00,0.0281
3934.00,0.0282
3933.00,0.0283
3932.00,0.0283
3931.00,0.0284
3930.00,0.0283
3929.00,0.0283
3928.00,0.0282
3927.00,0.0282
3926.00,0.0282
3925.00,0.0282
3924.00,0.0282
3923.00,0.0283
3922.00,0.0283
3921.00,0.0284
3920.00,0.0283
3919.00,0.0284
3918.00,0.0284
3917.00,0.0284
3916.00,0.0283
3915.00,0.0282
3914.00,0.0281
3913.00,0.0280
3912.00,0.0279
3911.00,0.0278
3910.00,0.0278
3909.00,0.0278
3908.00,0.0279
3907.00,0.0281
3906.00,0.0283
3905.00,0.0284
3904.00,0.0286
3903.00,0.0288
3902.00,0.0291
3901.00,0.0293
3900.00,0.0292
3899.00,0.0289
3898.00,0.0285
3897.00,0.0283
3896.00,0.0282
3895.00,0.0282
3894.00,0.0282
3893.00,0.0283
3892.00,0.0283
3891.00,0.0281
3890.00,0.0280
3889.00,0.0282
3888.00,0.0285
3887.00,0.0285
3886.00,0.0282
3885.00,0.0280
3884.00,0.0283
3883.00,0.0288
3882.00,0.0290
3881.00,0.0288
3880.00,0.0285
3879.00,0.0282
3878.00,0.0282
3877.00,0.0283
3876.00,0.0283
3875.00,0.0281
3874.00,0.0279
3873.00,0.0281
3872.00,0.0286
3871.00,0.0287
3870.00,0.0284
3869.00,0.0282
3868.00,0.0283
3867.00,0.0287
3866.00,0.0287
3865.00,0.0285
3864.00,0.0283
3863.00,0.0284
3862.00,0.0284
3861.00,0.0283
3860.00,0.0280
3859.00,0.0278
3858.00,0.0278
3857.00,0.0279
3856.00,0.0280
3855.00,0.0280
3854.00,0.0278
3853.00,0.0278
3852.00,0.0280
3851.00,0.0283
3850.00,0.0283
3849.00,0.0282
3848.00,0.0279
3847.00,0.0278
3846.00,0.0277
3845.00,0.0276
3844.00,0.0275
3843.00,0.0276
3842.00,0.0277
3841.00,0.0280
3840.00,0.0282
3839.00,0.0283
3838.00,0.0283
3837.00,0.0282
3836.00,0.0282
3835.00,0.0283
3834.00,0.0283
3833.00,0.0282
3832.00,0.0279
3831.00,0.0277
3830.00,0.0277
3829.00,0.0278
3828.00,0.0279
3827.00,0.0278
3826.00,0.0276
3825.00,0.0277
3824.00,0.0280
3823.00,0.0282
3822.00,0.0280
3821.00,0.0277
3820.00,0.0276
3819.00,0.0280
3818.00,0.0283
3817.00,0.0281
3816.00,0.0276
3815.00,0.0273
3814.00,0.0274
3813.00,0.0275
3812.00,0.0274
3811.00,0.0272
3810.00,0.0270
3809.00,0.0271
3808.00,0.0271
3807.00,0.0268
3806.00,0.0268
3805.00,0.0271
3804.00,0.0275
3803.00,0.0277
3802.00,0.0275
3801.00,0.0273
3800.00,0.0275
3799.00,0.0278
3798.00,0.0280
3797.00,0.0278
3796.00,0.0274
3795.00,0.0273
3794.00,0.0273
3793.00,0.0273
3792.00,0.0271
3791.00,0.0270
3790.00,0.0269
3789.00,0.0269
3788.00,0.0269
3787.00,0.0269
3786.00,0.0270
3785.00,0.0270
3784.00,0.0270
3783.00,0.0271
3782.00,0.0272
3781.00,0.0272
3780.00,0.0271
3779.00,0.0270
3778.00,0.0270
3777.00,0.0271
3776.00,0.0271
3775.00,0.0269
3774.00,0.0267
3773.00,0.0267
3772.00,0.0268
3771.00,0.0268
3770.00,0.0268
3769.00,0.0269
3768.00,0.0272
3767.00,0.0274
3766.00,0.0273
3765.00,0.0271
3764.00,0.0270
3763.00,0.0271
3762.00,0.0272
3761.00,0.0272
3760.00,0.0271
3759.00,0.0271
3758.00,0.0271
3757.00,0.0271
3756.00,0.0271
3755.00,0.0271
3754.00,0.0271
3753.00,0.0269
3752.00,0.0269
3751.00,0.0271
3750.00,0.0273
3749.00,0.0273
3748.00,0.0275
3747.00,0.0279
3746.00,0.0280
3745.00,0.0275
3744.00,0.0267
3743.00,0.0266
3742.00,0.0269
3741.00,0.0272
3740.00,0.0271
3739.00,0.0270
3738.00,0.0270
3737.00,0.0271
3736.00,0.0273
3735.00,0.0276
3734.00,0.0278
3733.00,0.0277
3732.00,0.0272
3731.00,0.0268
3730.00,0.0266
3729.00,0.0267
3728.00,0.0268
3727.00,0.0267
3726.00,0.0267
3725.00,0.0269
3724.00,0.0271
3723.00,0.0271
3722.00,0.0270
3721.00,0.0269
3720.00,0.0269
3719.00,0.0268
3718.00,0.0266
3717.00,0.0265
3716.00,0.0264
3715.00,0.0265
3714.00,0.0265
3713.00,0.0264
3712.00,0.0265
3711.00,0.0267
3710.00,0.0270
3709.00,0.0270
3708.00,0.0269
3707.00,0.0267
3706.00,0.0265
3705.00,0.0265
3704.00,0.0266
3703.00,0.0266
3702.00,0.0266
3701.00,0.0266
3700.00,0.0267
3699.00,0.0267
3698.00,0.0268
3697.00,0.0267
3696.00,0.0266
3695.00,0.0266
3694.00,0.0268
3693.00,0.0269
3692.00,0.0269
3691.00,0.0271
3690.00,0.0272
3689.00,0.0273
3688.00,0.0271
3687.00,0.0270
3686.00,0.0270
3685.00,0.0269
3684.00,0.0268
3683.00,0.0266
3682.00,0.0265
3681.00,0.0264
3680.00,0.0263
3679.00,0.0264
3678.00,0.0268
3677.00,0.0272
3676.00,0.0273
3675.00,0.0272
3674.00,0.0272
3673.00,0.0275
3672.00,0.0277
3671.00,0.0275
3670.00,0.0272
3669.00,0.0271
3668.00,0.0273
3667.00,0.0273
3666.00,0.0272
3665.00,0.0270
3664.00,0.0268
3663.00,0.0267
3662.00,0.0266
3661.00,0.0266
3660.00,0.0267
3659.00,0.0269
3658.00,0.0271
3657.00,0.0272
3656.00,0.0272
3655.00,0.0274
3654.00,0.0278
3653.00,0.0282
3652.00,0.0282
3651.00,0.0280
3650.00,0.0282
3649.00,0.0289
3648.00,0.0294
3647.00,0.0293
3646.00,0.0290
3645.00,0.0286
3644.00,0.0284
3643.00,0.0281
3642.00,0.0279
3641.00,0.0278
3640.00,0.0278
3639.00,0.0278
3638.00,0.0278
3637.00,0.0278
3636.00,0.0279
3635.00,0.0279
3634.00,0.0278
3633.00,0.0279
3632.00,0.0282
3631.00,0.0286
3630.00,0.0289
3629.00,0.0290
3628.00,0.0290
3627.00,0.0291
3626.00,0.0292
3625.00,0.0291
3624.00,0.0290
3623.00,0.0290
3622.00,0.0292
3621.00,0.0295
3620.00,0.0298
3619.00,0.0299
3618.00,0.0300
3617.00,0.0301
3616.00,0.0301
3615.00,0.0300
3614.00,0.0299
3613.00,0.0297
3612.00,0.0297
3611.00,0.0298
3610.00,0.0298
3609.00,0.0298
3608.00,0.0298
3607.00,0.0298
3606.00,0.0298
3605.00,0.0297
3604.00,0.0296
3603.00,0.0295
3602.00,0.0295
3601.00,0.0295
3600.00,0.0296
3599.00,0.0297
3598.00,0.0298
3597.00,0.0299
3596.00,0.0301
3595.00,0.0302
3594.00,0.0303
3593.00,0.0302
3592.00,0.0302
3591.00,0.0303
3590.00,0.0304
3589.00,0.0306
3588.00,0.0309
3587.00,0.0311
3586.00,0.0312
3585.00,0.0311
3584.00,0.0310
3583.00,0.0308
3582.00,0.0306
3581.00,0.0305
3580.00,0.0305
3579.00,0.0305
3578.00,0.0305
3577.00,0.0305
3576.00,0.0305
3575.00,0.0305
3574.00,0.0305
3573.00,0.0305
3572.00,0.0306
3571.00,0.0307
3570.00,0.0309
3569.00,0.0312
3568.00,0.0316
3567.00,0.0320
3566.00,0.0323
3565.00,0.0324
3564.00,0.0322
3563.00,0.0320
3562.00,0.0317
3561.00,0.0316
3560.00,0.0315
3559.00,0.0314
3558.00,0.0313
3557.00,0.0313
3556.00,0.0313
3555.00,0.0313
3554.00,0.0314
3553.00,0.0315
3552.00,0.0316
3551.00,0.0317
3550.00,0.0317
3549.00,0.0318
3548.00,0.0320
3547.00,0.0321
3546.00,0.0323
3545.00,0.0324
3544.00,0.0324
3543.00,0.0323
3542.00,0.0322
3541.00,0.0320
3540.00,0.0320
3539.00,0.0320
3538.00,0.0321
3537.00,0.0322
3536.00,0.0322
3535.00,0.0323
3534.00,0.0323
3533.00,0.0322
3532.00,0.0322
3531.00,0.0322
3530.00,0.0322
3529.00,0.0323
3528.00,0.0325
3527.00,0.0326
3526.00,0.0328
3525.00,0.0329
3524.00,0.0330
3523.00,0.0330
3522.00,0.0330
3521.00,0.0329
3520.00,0.0329
3519.00,0.0328
3518.00,0.0328
3517.00,0.0328
3516.00,0.0328
3515.00,0.0329
3514.00,0.0329
3513.00,0.0329
3512.00,0.0330
3511.00,0.0331
3510.00,0.0332
3509.00,0.0333
3508.00,0.0333
3507.00,0.0333
3506.00,0.0334
3505.00,0.0334
3504.00,0.0335
3503.00,0.0337
3502.00,0.0337
3501.00,0.0338
3500.00,0.0337
3499.00,0.0336
3498.00,0.0336
3497.00,0.0335
3496.00,0.0335
3495.00,0.0335
3494.00,0.0336
3493.00,0.0336
3492.00,0.0336
3491.00,0.0335
3490.00,0.0335
3489.00,0.0335
3488.00,0.0335
3487.00,0.0336
3486.00,0.0337
3485.00,0.0338
3484.00,0.0339
3483.00,0.0339
3482.00,0.0340
3481.00,0.0340
3480.00,0.0341
3479.00,0.0341
3478.00,0.0342
3477.00,0.0342
3476.00,0.0342
3475.00,0.0342
3474.00,0.0342
3473.00,0.0342
3472.00,0.0343
3471.00,0.0343
3470.00,0.0343
3469.00,0.0344
3468.00,0.0344
3467.00,0.0344
3466.00,0.0345
3465.00,0.0345
3464.00,0.0345
3463.00,0.0346
3462.00,0.0346
3461.00,0.0346
3460.00,0.0346
3459.00,0.0346
3458.00,0.0346
3457.00,0.0346
3456.00,0.0347
3455.00,0.0348
3454.00,0.0348
3453.00,0.0348
3452.00,0.0348
3451.00,0.0349
3450.00,0.0349
3449.00,0.0350
3448.00,0.0350
3447.00,0.0351
3446.00,0.0352
3445.00,0.0352
3444.00,0.0352
3443.00,0.0352
3442.00,0.0352
3441.00,0.0352
3440.00,0.0351
3439.00,0.0351
3438.00,0.0351
3437.00,0.0351
3436.00,0.0352
3435.00,0.0352
3434.00,0.0352
3433.00,0.0353
3432.00,0.0353
3431.00,0.0353
3430.00,0.0353
3429.00,0.0353
3428.00,0.0353
3427.00,0.0353
3426.00,0.0354
3425.00,0.0354
3424.00,0.0355
3423.00,0.0356
3422.00,0.0356
3421.00,0.0356
3420.00,0.0357
3419.00,0.0357
3418.00,0.0357
3417.00,0.0357
3416.00,0.0357
3415.00,0.0357
3414.00,0.0358
3413.00,0.0358
3412.00,0.0358
3411.00,0.0358
3410.00,0.0358
3409.00,0.0358
3408.00,0.0358
3407.00,0.0359
3406.00,0.0359
3405.00,0.0360
3404.00,0.0360
3403.00,0.0361
3402.00,0.0361
3401.00,0.0361
3400.00,0.0361
3399.00,0.0361
3398.00,0.0361
3397.00,0.0361
3396.00,0.0361
3395.00,0.0361
3394.00,0.0362
3393.00,0.0363
3392.00,0.0363
3391.00,0.0364
3390.00,0.0363
3389.00,0.0363
3388.00,0.0363
3387.00,0.0363
3386.00,0.0363
3385.00,0.0364
3384.00,0.0364
3383.00,0.0364
3382.00,0.0363
3381.00,0.0363
3380.00,0.0363
3379.00,0.0363
3378.00,0.0363
3377.00,0.0364
3376.00,0.0364
3375.00,0.0364
3374.00,0.0364
3373.00,0.0365
3372.00,0.0365
3371.00,0.0365
3370.00,0.0365
3369.00,0.0365
3368.00,0.0366
3367.00,0.0366
3366.00,0.0366
3365.00,0.0367
3364.00,0.0367
3363.00,0.0368
3362.00,0.0368
3361.00,0.0368
3360.00,0.0368
3359.00,0.0368
3358.00,0.0368
3357.00,0.0368
3356.00,0.0368
3355.00,0.0368
3354.00,0.0367
3353.00,0.0367
3352.00,0.0367
3351.00,0.0367
3350.00,0.0368
3349.00,0.0368
3348.00,0.0367
3347.00,0.0367
3346.00,0.0367
3345.00,0.0367
3344.00,0.0368
3343.00,0.0368
3342.00,0.0368
3341.00,0.0369
3340.00,0.0369
3339.00,0.0369
3338.00,0.0370
3337.00,0.0370
3336.00,0.0371
3335.00,0.0371
3334.00,0.0371
3333.00,0.0371
3332.00,0.0371
3331.00,0.0370
3330.00,0.0370
3329.00,0.0370
3328.00,0.0371
3327.00,0.0371
3326.00,0.0372
3325.00,0.0372
3324.00,0.0372
3323.00,0.0371
3322.00,0.0371
3321.00,0.0370
3320.00,0.0370
3319.00,0.0370
3318.00,0.0370
3317.00,0.0371
3316.00,0.0372
3315.00,0.0372
3314.00,0.0372
3313.00,0.0372
3312.00,0.0372
3311.00,0.0372
3310.00,0.0372
3309.00,0.0373
3308.00,0.0373
3307.00,0.0373
3306.00,0.0373
3305.00,0.0373
3304.00,0.0374
3303.00,0.0374
3302.00,0.0374
3301.00,0.0374
3300.00,0.0373
3299.00,0.0372
3298.00,0.0372
3297.00,0.0372
3296.00,0.0373
3295.00,0.0373
3294.00,0.0373
3293.00,0.0373
3292.00,0.0373
3291.00,0.0374
3290.00,0.0374
3289.00,0.0374
3288.00,0.0374
3287.00,0.0375
3286.00,0.0375
3285.00,0.0375
3284.00,0.0375
3283.00,0.0375
3282.00,0.0375
3281.00,0.0374
3280.00,0.0374
3279.00,0.0374
3278.00,0.0374
3277.00,0.0374
3276.00,0.0374
3275.00,0.0375
3274.00,0.0376
3273.00,0.0377
3272.00,0.0377
3271.00,0.0377
3270.00,0.0376
3269.00,0.0376
3268.00,0.0376
3267.00,0.0376
3266.00,0.0376
3265.00,0.0376
3264.00,0.0376
3263.00,0.0376
3262.00,0.0376
3261.00,0.0376
3260.00,0.0376
3259.00,0.0376
3258.00,0.0376
3257.00,0.0376
3256.00,0.0377
3255.00,0.0377
3254.00,0.0376
3253.00,0.0376
3252.00,0.0376
3251.00,0.0376
3250.00,0.0376
3249.00,0.0376
3248.00,0.0377
3247.00,0.0377
3246.00,0.0378
3245.00,0.0378
3244.00,0.0378
3243.00,0.0377
3242.00,0.0377
3241.00,0.0376
3240.00,0.0376
3239.00,0.0376
3238.00,0.0376
3237.00,0.0376
3236.00,0.0376
3235.00,0.0376
3234.00,0.0377
3233.00,0.0377
3232.00,0.0378
3231.00,0.0378
3230.00,0.0378
3229.00,0.0378
3228.00,0.0378
3227.00,0.0378
3226.00,0.0378
3225.00,0.0378
3224.00,0.0378
3223.00,0.0377
3222.00,0.0377
3221.00,0.0377
3220.00,0.0377
3219.00,0.0377
3218.00,0.0377
3217.00,0.0377
3216.00,0.0377
3215.00,0.0377
3214.00,0.0377
3213.00,0.0378
3212.00,0.0378
3211.00,0.0378
3210.00,0.0378
3209.00,0.0378
3208.00,0.0378
3207.00,0.0378
3206.00,0.0378
3205.00,0.0378
3204.00,0.0378
3203.00,0.0377
3202.00,0.0377
3201.00,0.0378
3200.00,0.0378
3199.00,0.0379
3198.00,0.0379
3197.00,0.0379
3196.00,0.0378
3195.00,0.0378
3194.00,0.0377
3193.00,0.0377
3192.00,0.0377
3191.00,0.0377
3190.00,0.0377
3189.00,0.0377
3188.00,0.0377
3187.00,0.0377
3186.00,0.0377
3185.00,0.0378
3184.00,0.0378
3183.00,0.0377
3182.00,0.0377
3181.00,0.0377
3180.00,0.0377
3179.00,0.0376
3178.00,0.0376
3177.00,0.0376
3176.00,0.0376
3175.00,0.0376
3174.00,0.0376
3173.00,0.0376
3172.00,0.0376
3171.00,0.0376
3170.00,0.0376
3169.00,0.0376
3168.00,0.0375
3167.00,0.0375
3166.00,0.0375
3165.00,0.0375
3164.00,0.0375
3163.00,0.0375
3162.00,0.0375
3161.00,0.0375
3160.00,0.0375
3159.00,0.0376
3158.00,0.0376
3157.00,0.0375
3156.00,0.0374
3155.00,0.0374
3154.00,0.0374
3153.00,0.0374
3152.00,0.0374
3151.00,0.0374
3150.00,0.0373
3149.00,0.0373
3148.00,0.0373
3147.00,0.0373
3146.00,0.0374
3145.00,0.0374
3144.00,0.0374
3143.00,0.0374
3142.00,0.0374
3141.00,0.0374
3140.00,0.0373
3139.00,0.0373
3138.00,0.0372
3137.00,0.0372
3136.00,0.0372
3135.00,0.0373
3134.00,0.0373
3133.00,0.0373
3132.00,0.0373
3131.00,0.0373
3130.00,0.0373
3129.00,0.0373
3128.00,0.0373
3127.00,0.0373
3126.00,0.0373
3125.00,0.0373
3124.00,0.0372
3123.00,0.0372
3122.00,0.0372
3121.00,0.0372
3120.00,0.0372
3119.00,0.0372
3118.00,0.0372
3117.00,0.0372
3116.00,0.0372
3115.00,0.0372
3114.00,0.0372
3113.00,0.0372
3112.00,0.0372
3111.00,0.0372
3110.00,0.0372
3109.00,0.0371
3108.00,0.0371
3107.00,0.0371
3106.00,0.0371
3105.00,0.0371
3104.00,0.0372
3103.00,0.0372
3102.00,0.0372
3101.00,0.0371
3100.00,0.0372
3099.00,0.0372
3098.00,0.0372
3097.00,0.0371
3096.00,0.0371
3095.00,0.0371
3094.00,0.0371
3093.00,0.0371
3092.00,0.0371
3091.00,0.0371
3090.00,0.0371
3089.00,0.0370
3088.00,0.0370
3087.00,0.0370
3086.00,0.0370
3085.00,0.0370
3084.00,0.0370
3083.00,0.0370
3082.00,0.0370
3081.00,0.0370
3080.00,0.0370
3079.00,0.0370
3078.00,0.0369
3077.00,0.0369
3076.00,0.0369
3075.00,0.0369
3074.00,0.0369
3073.00,0.0369
3072.00,0.0369
3071.00,0.0369
3070.00,0.0369
3069.00,0.0368
3068.00,0.0368
3067.00,0.0369
3066.00,0.0369
3065.00,0.0370
3064.00,0.0370
3063.00,0.0370
3062.00,0.0369
3061.00,0.0369
3060.00,0.0368
3059.00,0.0368
3058.00,0.0369
3057.00,0.0369
3056.00,0.0369
3055.00,0.0370
3054.00,0.0370
3053.00,0.0370
3052.00,0.0370
3051.00,0.0369
3050.00,0.0368
3049.00,0.0368
3048.00,0.0367
3047.00,0.0367
3046.00,0.0367
3045.00,0.0367
3044.00,0.0368
3043.00,0.0368
3042.00,0.0367
3041.00,0.0367
3040.00,0.0367
3039.00,0.0366
3038.00,0.0366
3037.00,0.0366
3036.00,0.0366
3035.00,0.0366
3034.00,0.0366
3033.00,0.0366
3032.00,0.0367
3031.00,0.0367
3030.00,0.0366
3029.00,0.0366
3028.00,0.0365
3027.00,0.0364
3026.00,0.0364
3025.00,0.0364
3024.00,0.0364
3023.00,0.0364
3022.00,0.0365
3021.00,0.0365
3020.00,0.0365
3019.00,0.0365
3018.00,0.0365
3017.00,0.0364
3016.00,0.0365
3015.00,0.0365
3014.00,0.0365
3013.00,0.0366
3012.00,0.0366
3011.00,0.0366
3010.00,0.0366
3009.00,0.0366
3008.00,0.0366
3007.00,0.0367
3006.00,0.0367
3005.00,0.0368
3004.00,0.0368
3003.00,0.0368
3002.00,0.0369
3001.00,0.0369
3000.00,0.0368
2999.00,0.0368
2998.00,0.0368
2997.00,0.0369
2996.00,0.0369
2995.00,0.0370
2994.00,0.0370
2993.00,0.0370
2992.00,0.0370
2991.00,0.0370
2990.00,0.0370
2989.00,0.0370
2988.00,0.0370
2987.00,0.0370
2986.00,0.0371
2985.00,0.0373
2984.00,0.0375
2983.00,0.0376
2982.00,0.0376
2981.00,0.0376
2980.00,0.0375
2979.00,0.0374
2978.00,0.0373
2977.00,0.0372
2976.00,0.0372
2975.00,0.0371
2974.00,0.0371
2973.00,0.0370
2972.00,0.0370
2971.00,0.0369
2970.00,0.0368
2969.00,0.0367
2968.00,0.0366
2967.00,0.0365
2966.00,0.0364
2965.00,0.0363
2964.00,0.0362
2963.00,0.0361
2962.00,0.0360
2961.00,0.0359
2960.00,0.0358
2959.00,0.0358
2958.00,0.0358
2957.00,0.0357
2956.00,0.0357
2955.00,0.0357
2954.00,0.0357
2953.00,0.0357
2952.00,0.0357
2951.00,0.0357
2950.00,0.0356
2949.00,0.0356
2948.00,0.0356
2947.00,0.0356
2946.00,0.0356
2945.00,0.0356
2944.00,0.0355
2943.00,0.0355
2942.00,0.0354
2941.00,0.0353
2940.00,0.0352
2939.00,0.0352
2938.00,0.0351
2937.00,0.0350
2936.00,0.0349
2935.00,0.0349
2934.00,0.0348
2933.00,0.0347
2932.00,0.0346
2931.00,0.0346
2930.00,0.0345
2929.00,0.0344
2928.00,0.0343
2927.00,0.0342
2926.00,0.0341
2925.00,0.0341
2924.00,0.0340
2923.00,0.0340
2922.00,0.0341
2921.00,0.0341
2920.00,0.0341
2919.00,0.0340
2918.00,0.0339
2917.00,0.0339
2916.00,0.0340
2915.00,0.0342
2914.00,0.0344
2913.00,0.0345
2912.00,0.0346
2911.00,0.0347
2910.00,0.0348
2909.00,0.0348
2908.00,0.0349
2907.00,0.0350
2906.00,0.0350
2905.00,0.0350
2904.00,0.0351
2903.00,0.0351
2902.00,0.0351
2901.00,0.0352
2900.00,0.0352
2899.00,0.0352
2898.00,0.0351
2897.00,0.0351
2896.00,0.0351
2895.00,0.0351
2894.00,0.0351
2893.00,0.0352
2892.00,0.0352
2891.00,0.0353
2890.00,0.0353
2889.00,0.0353
2888.00,0.0353
2887.00,0.0353
2886.00,0.0353
2885.00,0.0353
2884.00,0.0353
2883.00,0.0353
2882.00,0.0353
2881.00,0.0353
2880.00,0.0352
2879.00,0.0351
2878.00,0.0351
2877.00,0.0350
2876.00,0.0349
2875.00,0.0348
2874.00,0.0347
2873.00,0.0346
2872.00,0.0346
2871.00,0.0345
2870.00,0.0345
2869.00,0.0345
2868.00,0.0345
2867.00,0.0345
2866.00,0.0344
2865.00,0.0344
2864.00,0.0343
2863.00,0.0343
2862.00,0.0343
2861.00,0.0342
2860.00,0.0342
2859.00,0.0341
2858.00,0.0341
2857.00,0.0340
2856.00,0.0339
2855.00,0.0339
2854.00,0.0339
2853.00,0.0339
2852.00,0.0338
2851.00,0.0338
2850.00,0.0337
2849.00,0.0337
2848.00,0.0338
2847.00,0.0338
2846.00,0.0339
2845.00,0.0339
2844.00,0.0340
2843.00,0.0341
2842.00,0.0342
2841.00,0.0342
2840.00,0.0343
2839.00,0.0343
2838.00,0.0343
2837.00,0.0344
2836.00,0.0344
2835.00,0.0343
2834.00,0.0343
2833.00,0.0343
2832.00,0.0343
2831.00,0.0342
2830.00,0.0342
2829.00,0.0342
2828.00,0.0342
2827.00,0.0342
2826.00,0.0342
2825.00,0.0342
2824.00,0.0342
2823.00,0.0342
2822.00,0.0341
2821.00,0.0341
2820.00,0.0341
2819.00,0.0341
2818.00,0.0341
2817.00,0.0341
2816.00,0.0341
2815.00,0.0340
2814.00,0.0340
2813.00,0.0340
2812.00,0.0339
2811.00,0.0339
2810.00,0.0339
2809.00,0.0340
2808.00,0.0340
2807.00,0.0340
2806.00,0.0339
2805.00,0.0339
2804.00,0.0339
2803.00,0.0339
2802.00,0.0338
2801.00,0.0338
2800.00,0.0338
2799.00,0.0337
2798.00,0.0337
2797.00,0.0337
2796.00,0.0337
2795.00,0.0337
2794.00,0.0336
2793.00,0.0336
2792.00,0.0336
2791.00,0.0336
2790.00,0.0336
2789.00,0.0336
2788.00,0.0336
2787.00,0.0336
2786.00,0.0336
2785.00,0.0335
2784.00,0.0335
2783.00,0.0335
2782.00,0.0335
2781.00,0.0335
2780.00,0.0335
2779.00,0.0334
2778.00,0.0334
2777.00,0.0334
2776.00,0.0334
2775.00,0.0334
2774.00,0.0334
2773.00,0.0333
2772.00,0.0333
2771.00,0.0333
2770.00,0.0333
2769.00,0.0333
2768.00,0.0332
2767.00,0.0332
2766.00,0.0332
2765.00,0.0332
2764.00,0.0332
2763.00,0.0332
2762.00,0.0332
2761.00,0.0331
2760.00,0.0331
2759.00,0.0331
2758.00,0.0331
2757.00,0.0331
2756.00,0.0331
2755.00,0.0331
2754.00,0.0331
2753.00,0.0331
2752.00,0.0331
2751.00,0.0331
2750.00,0.0331
2749.00,0.0331
2748.00,0.0331
2747.00,0.0331
2746.00,0.0330
2745.00,0.0329
2744.00,0.0329
2743.00,0.0328
2742.00,0.0328
2741.00,0.0328
2740.00,0.0328
2739.00,0.0328
2738.00,0.0328
2737.00,0.0328
2736.00,0.0328
2735.00,0.0327
2734.00,0.0327
2733.00,0.0327
2732.00,0.0327
2731.00,0.0327
2730.00,0.0327
2729.00,0.0327
2728.00,0.0327
2727.00,0.0327
2726.00,0.0327
2725.00,0.0327
2724.00,0.0326
2723.00,0.0327
2722.00,0.0327
2721.00,0.0326
2720.00,0.0326
2719.00,0.0325
2718.00,0.0325
2717.00,0.0325
2716.00,0.0325
2715.00,0.0325
2714.00,0.0325
2713.00,0.0325
2712.00,0.0325
2711.00,0.0325
2710.00,0.0325
2709.00,0.0325
2708.00,0.0325
2707.00,0.0324
2706.00,0.0324
2705.00,0.0324
2704.00,0.0324
2703.00,0.0324
2702.00,0.0324
2701.00,0.0323
2700.00,0.0323
2699.00,0.0323
2698.00,0.0322
2697.00,0.0322
2696.00,0.0322
2695.00,0.0322
2694.00,0.0322
2693.00,0.0322
2692.00,0.0322
2691.00,0.0322
2690.00,0.0322
2689.00,0.0322
2688.00,0.0322
2687.00,0.0322
2686.00,0.0322
2685.00,0.0322
2684.00,0.0321
2683.00,0.0321
2682.00,0.0321
2681.00,0.0320
2680.00,0.0320
2679.00,0.0320
2678.00,0.0321
2677.00,0.0321
2676.00,0.0320
2675.00,0.0320
2674.00,0.0320
2673.00,0.0319
2672.00,0.0319
2671.00,0.0319
2670.00,0.0319
2669.00,0.0318
2668.00,0.0319
2667.00,0.0319
2666.00,0.0319
2665.00,0.0319
2664.00,0.0319
2663.00,0.0319
2662.00,0.0320
2661.00,0.0320
2660.00,0.0320
2659.00,0.0320
2658.00,0.0320
2657.00,0.0320
2656.00,0.0319
2655.00,0.0319
2654.00,0.0319
2653.00,0.0320
2652.00,0.0320
2651.00,0.0320
2650.00,0.0320
2649.00,0.0320
2648.00,0.0320
2647.00,0.0320
2646.00,0.0320
2645.00,0.0320
2644.00,0.0321
2643.00,0.0321
2642.00,0.0321
2641.00,0.0321
2640.00,0.0321
2639.00,0.0320
2638.00,0.0320
2637.00,0.0320
2636.00,0.0320
2635.00,0.0320
2634.00,0.0320
2633.00,0.0320
2632.00,0.0320
2631.00,0.0319
2630.00,0.0319
2629.00,0.0319
2628.00,0.0319
2627.00,0.0319
2626.00,0.0319
2625.00,0.0319
2624.00,0.0319
2623.00,0.0319
2622.00,0.0319
2621.00,0.0319
2620.00,0.0319
2619.00,0.0319
2618.00,0.0320
2617.00,0.0320
2616.00,0.0320
2615.00,0.0320
2614.00,0.0320
2613.00,0.0320
2612.00,0.0320
2611.00,0.0319
2610.00,0.0319
2609.00,0.0319
2608.00,0.0319
2607.00,0.0319
2606.00,0.0319
2605.00,0.0319
2604.00,0.0319
2603.00,0.0319
2602.00,0.0319
2601.00,0.0319
2600.00,0.0319
2599.00,0.0319
2598.00,0.0319
2597.00,0.0318
2596.00,0.0318
2595.00,0.0318
2594.00,0.0318
2593.00,0.0319
2592.00,0.0319
2591.00,0.0319
2590.00,0.0319
2589.00,0.0319
2588.00,0.0318
2587.00,0.0318
2586.00,0.0318
2585.00,0.0318
2584.00,0.0318
2583.00,0.0318
2582.00,0.0318
2581.00,0.0318
2580.00,0.0318
2579.00,0.0318
2578.00,0.0318
2577.00,0.0318
2576.00,0.0318
2575.00,0.0318
2574.00,0.0318
2573.00,0.0318
2572.00,0.0318
2571.00,0.0317
2570.00,0.0317
2569.00,0.0316
2568.00,0.0316
2567.00,0.0317
2566.00,0.0318
2565.00,0.0318
2564.00,0.0319
2563.00,0.0318
2562.00,0.0318
2561.00,0.0318
2560.00,0.0318
2559.00,0.0317
2558.00,0.0317
2557.00,0.0317
2556.00,0.0318
2555.00,0.0318
2554.00,0.0318
2553.00,0.0318
2552.00,0.0318
2551.00,0.0318
2550.00,0.0318
2549.00,0.0318
2548.00,0.0317
2547.00,0.0317
2546.00,0.0316
2545.00,0.0316
2544.00,0.0316
2543.00,0.0317
2542.00,0.0317
2541.00,0.0318
2540.00,0.0318
2539.00,0.0318
2538.00,0.0318
2537.00,0.0317
2536.00,0.0317
2535.00,0.0318
2534.00,0.0318
2533.00,0.0318
2532.00,0.0318
2531.00,0.0317
2530.00,0.0317
2529.00,0.0317
2528.00,0.0317
2527.00,0.0317
2526.00,0.0317
2525.00,0.0317
2524.00,0.0317
2523.00,0.0317
2522.00,0.0317
2521.00,0.0317
2520.00,0.0317
2519.00,0.0317
2518.00,0.0316
2517.00,0.0315
2516.00,0.0315
2515.00,0.0315
2514.00,0.0315
2513.00,0.0316
2512.00,0.0316
2511.00,0.0316
2510.00,0.0315
2509.00,0.0314
2508.00,0.0314
2507.00,0.0314
2506.00,0.0314
2505.00,0.0314
2504.00,0.0314
2503.00,0.0315
2502.00,0.0316
2501.00,0.0316
2500.00,0.0316
2499.00,0.0316
2498.00,0.0315
2497.00,0.0315
2496.00,0.0314
2495.00,0.0314
2494.00,0.0314
2493.00,0.0314
2492.00,0.0314
2491.00,0.0314
2490.00,0.0315
2489.00,0.0315
2488.00,0.0315
2487.00,0.0315
2486.00,0.0314
2485.00,0.0314
2484.00,0.0314
2483.00,0.0314
2482.00,0.0315
2481.00,0.0315
2480.00,0.0315
2479.00,0.0315
2478.00,0.0314
2477.00,0.0314
2476.00,0.0313
2475.00,0.0313
2474.00,0.0314
2473.00,0.0314
2472.00,0.0314
2471.00,0.0313
2470.00,0.0313
2469.00,0.0312
2468.00,0.0312
2467.00,0.0312
2466.00,0.0312
2465.00,0.0312
2464.00,0.0312
2463.00,0.0312
2462.00,0.0312
2461.00,0.0312
2460.00,0.0312
2459.00,0.0313
2458.00,0.0313
2457.00,0.0313
2456.00,0.0313
2455.00,0.0313
2454.00,0.0312
2453.00,0.0312
2452.00,0.0313
2451.00,0.0313
2450.00,0.0313
2449.00,0.0312
2448.00,0.0312
2447.00,0.0311
2446.00,0.0311
2445.00,0.0310
2444.00,0.0310
2443.00,0.0310
2442.00,0.0310
2441.00,0.0311
2440.00,0.0310
2439.00,0.0310
2438.00,0.0310
2437.00,0.0310
2436.00,0.0310
2435.00,0.0310
2434.00,0.0310
2433.00,0.0310
2432.00,0.0310
2431.00,0.0310
2430.00,0.0310
2429.00,0.0310
2428.00,0.0310
2427.00,0.0309
2426.00,0.0309
2425.00,0.0309
2424.00,0.0309
2423.00,0.0309
2422.00,0.0309
2421.00,0.0308
2420.00,0.0308
2419.00,0.0308
2418.00,0.0308
2417.00,0.0308
2416.00,0.0308
2415.00,0.0308
2414.00,0.0308
2413.00,0.0308
2412.00,0.0308
2411.00,0.0307
2410.00,0.0307
2409.00,0.0307
2408.00,0.0307
2407.00,0.0306
2406.00,0.0306
2405.00,0.0306
2404.00,0.0307
2403.00,0.0306
2402.00,0.0306
2401.00,0.0306
2400.00,0.0305
2399.00,0.0305
2398.00,0.0305
2397.00,0.0305
2396.00,0.0305
2395.00,0.0305
2394.00,0.0305
2393.00,0.0305
2392.00,0.0305
2391.00,0.0304
2390.00,0.0304
2389.00,0.0303
2388.00,0.0302
2387.00,0.0301
2386.00,0.0300
2385.00,0.0298
2384.00,0.0296
2383.00,0.0294
2382.00,0.0292
2381.00,0.0291
2380.00,0.0290
2379.00,0.0289
2378.00,0.0289
2377.00,0.0289
2376.00,0.0290
2375.00,0.0291
2374.00,0.0292
2373.00,0.0293
2372.00,0.0294
2371.00,0.0294
2370.00,0.0293
2369.00,0.0291
2368.00,0.0290
2367.00,0.0289
2366.00,0.0289
2365.00,0.0288
2364.00,0.0288
2363.00,0.0288
2362.00,0.0290
2361.00,0.0292
2360.00,0.0294
2359.00,0.0295
2358.00,0.0294
2357.00,0.0294
2356.00,0.0295
2355.00,0.0297
2354.00,0.0297
2353.00,0.0294
2352.00,0.0290
2351.00,0.0286
2350.00,0.0284
2349.00,0.0280
2348.00,0.0276
2347.00,0.0274
2346.00,0.0275
2345.00,0.0281
2344.00,0.0288
2343.00,0.0292
2342.00,0.0294
2341.00,0.0294
2340.00,0.0294
2339.00,0.0294
2338.00,0.0295
2337.00,0.0295
2336.00,0.0295
2335.00,0.0296
2334.00,0.0296
2333.00,0.0296
2332.00,0.0297
2331.00,0.0299
2330.00,0.0301
2329.00,0.0302
2328.00,0.0304
2327.00,0.0304
2326.00,0.0304
2325.00,0.0303
2324.00,0.0304
2323.00,0.0304
2322.00,0.0305
2321.00,0.0305
2320.00,0.0304
2319.00,0.0303
2318.00,0.0303
2317.00,0.0302
2316.00,0.0301
2315.00,0.0300
2314.00,0.0300
2313.00,0.0300
2312.00,0.0301
2311.00,0.0301
2310.00,0.0300
2309.00,0.0299
2308.00,0.0298
2307.00,0.0298
2306.00,0.0299
2305.00,0.0299
2304.00,0.0299
2303.00,0.0299
2302.00,0.0299
2301.00,0.0298
2300.00,0.0298
2299.00,0.0298
2298.00,0.0298
2297.00,0.0298
2296.00,0.0297
2295.00,0.0297
2294.00,0.0297
2293.00,0.0296
2292.00,0.0296
2291.00,0.0297
2290.00,0.0297
2289.00,0.0297
2288.00,0.0298
2287.00,0.0298
2286.00,0.0298
2285.00,0.0298
2284.00,0.0297
2283.00,0.0296
2282.00,0.0296
2281.00,0.0297
2280.00,0.0297
2279.00,0.0297
2278.00,0.0296
2277.00,0.0296
2276.00,0.0296
2275.00,0.0296
2274.00,0.0297
2273.00,0.0297
2272.00,0.0297
2271.00,0.0296
2270.00,0.0294
2269.00,0.0294
2268.00,0.0293
2267.00,0.0294
2266.00,0.0294
2265.00,0.0294
2264.00,0.0293
2263.00,0.0293
2262.00,0.0293
2261.00,0.0293
2260.00,0.0294
2259.00,0.0295
2258.00,0.0296
2257.00,0.0296
2256.00,0.0296
2255.00,0.0295
2254.00,0.0294
2253.00,0.0292
2252.00,0.0292
2251.00,0.0292
2250.00,0.0293
2249.00,0.0294
2248.00,0.0294
2247.00,0.0294
2246.00,0.0292
2245.00,0.0291
2244.00,0.0290
2243.00,0.0290
2242.00,0.0292
2241.00,0.0293
2240.00,0.0293
2239.00,0.0293
2238.00,0.0292
2237.00,0.0292
2236.00,0.0292
2235.00,0.0292
2234.00,0.0292
2233.00,0.0292
2232.00,0.0292
2231.00,0.0292
2230.00,0.0293
2229.00,0.0294
2228.00,0.0295
2227.00,0.0296
2226.00,0.0296
2225.00,0.0295
2224.00,0.0294
2223.00,0.0293
2222.00,0.0293
2221.00,0.0294
2220.00,0.0294
2219.00,0.0294
2218.00,0.0293
2217.00,0.0292
2216.00,0.0292
2215.00,0.0292
2214.00,0.0292
2213.00,0.0292
2212.00,0.0292
2211.00,0.0290
2210.00,0.0289
2209.00,0.0288
2208.00,0.0287
2207.00,0.0288
2206.00,0.0290
2205.00,0.0292
2204.00,0.0295
2203.00,0.0295
2202.00,0.0295
2201.00,0.0294
2200.00,0.0293
2199.00,0.0292
2198.00,0.0291
2197.00,0.0291
2196.00,0.0291
2195.00,0.0291
2194.00,0.0291
2193.00,0.0290
2192.00,0.0289
2191.00,0.0290
2190.00,0.0291
2189.00,0.0293
2188.00,0.0293
2187.00,0.0292
2186.00,0.0291
2185.00,0.0290
2184.00,0.0291
2183.00,0.0292
2182.00,0.0293
2181.00,0.0293
2180.00,0.0293
2179.00,0.0292
2178.00,0.0290
2177.00,0.0288
2176.00,0.0287
2175.00,0.0287
2174.00,0.0288
2173.00,0.0289
2172.00,0.0289
2171.00,0.0288
2170.00,0.0288
2169.00,0.0288
2168.00,0.0289
2167.00,0.0290
2166.00,0.0291
2165.00,0.0291
2164.00,0.0291
2163.00,0.0291
2162.00,0.0291
2161.00,0.0289
2160.00,0.0285
2159.00,0.0281
2158.00,0.0280
2157.00,0.0280
2156.00,0.0281
2155.00,0.0283
2154.00,0.0284
2153.00,0.0285
2152.00,0.0285
2151.00,0.0284
2150.00,0.0283
2149.00,0.0282
2148.00,0.0281
2147.00,0.0281
2146.00,0.0280
2145.00,0.0280
2144.00,0.0279
2143.00,0.0280
2142.00,0.0280
2141.00,0.0280
2140.00,0.0280
2139.00,0.0280
2138.00,0.0278
2137.00,0.0276
2136.00,0.0273
2135.00,0.0272
2134.00,0.0272
2133.00,0.0272
2132.00,0.0273
2131.00,0.0274
2130.00,0.0274
2129.00,0.0273
2128.00,0.0272
2127.00,0.0272
2126.00,0.0271
2125.00,0.0271
2124.00,0.0271
2123.00,0.0272
2122.00,0.0273
2121.00,0.0275
2120.00,0.0276
2119.00,0.0277
2118.00,0.0278
2117.00,0.0278
2116.00,0.0277
2115.00,0.0276
2114.00,0.0275
2113.00,0.0274
2112.00,0.0273
2111.00,0.0273
2110.00,0.0273
2109.00,0.0273
2108.00,0.0273
2107.00,0.0272
2106.00,0.0272
2105.00,0.0272
2104.00,0.0272
2103.00,0.0272
2102.00,0.0272
2101.00,0.0272
2100.00,0.0272
2099.00,0.0272
2098.00,0.0273
2097.00,0.0274
2096.00,0.0274
2095.00,0.0273
2094.00,0.0272
2093.00,0.0271
2092.00,0.0271
2091.00,0.0272
2090.00,0.0273
2089.00,0.0273
2088.00,0.0273
2087.00,0.0273
2086.00,0.0273
2085.00,0.0273
2084.00,0.0273
2083.00,0.0272
2082.00,0.0271
2081.00,0.0270
2080.00,0.0269
2079.00,0.0268
2078.00,0.0269
2077.00,0.0270
2076.00,0.0271
2075.00,0.0271
2074.00,0.0271
2073.00,0.0270
2072.00,0.0269
2071.00,0.0268
2070.00,0.0269
2069.00,0.0270
2068.00,0.0270
2067.00,0.0270
2066.00,0.0271
2065.00,0.0271
2064.00,0.0271
2063.00,0.0270
2062.00,0.0270
2061.00,0.0270
2060.00,0.0270
2059.00,0.0270
2058.00,0.0270
2057.00,0.0270
2056.00,0.0270
2055.00,0.0270
2054.00,0.0270
2053.00,0.0271
2052.00,0.0271
2051.00,0.0271
2050.00,0.0272
2049.00,0.0271
2048.00,0.0270
2047.00,0.0269
2046.00,0.0269
2045.00,0.0270
2044.00,0.0270
2043.00,0.0269
2042.00,0.0269
2041.00,0.0270
2040.00,0.0272
2039.00,0.0273
2038.00,0.0274
2037.00,0.0274
2036.00,0.0273
2035.00,0.0271
2034.00,0.0269
2033.00,0.0267
2032.00,0.0266
2031.00,0.0265
2030.00,0.0266
2029.00,0.0267
2028.00,0.0267
2027.00,0.0266
2026.00,0.0265
2025.00,0.0265
2024.00,0.0265
2023.00,0.0265
2022.00,0.0265
2021.00,0.0266
2020.00,0.0266
2019.00,0.0265
2018.00,0.0264
2017.00,0.0264
2016.00,0.0264
2015.00,0.0264
2014.00,0.0265
2013.00,0.0265
2012.00,0.0264
2011.00,0.0263
2010.00,0.0261
2009.00,0.0260
2008.00,0.0259
2007.00,0.0257
2006.00,0.0256
2005.00,0.0256
2004.00,0.0257
2003.00,0.0259
2002.00,0.0261
2001.00,0.0262
2000.00,0.0263
1999.00,0.0263
1998.00,0.0264
1997.00,0.0264
1996.00,0.0264
1995.00,0.0265
1994.00,0.0266
1993.00,0.0267
1992.00,0.0267
1991.00,0.0264
1990.00,0.0261
1989.00,0.0259
1988.00,0.0257
1987.00,0.0257
1986.00,0.0257
1985.00,0.0257
1984.00,0.0258
1983.00,0.0260
1982.00,0.0262
1981.00,0.0265
1980.00,0.0265
1979.00,0.0264
1978.00,0.0263
1977.00,0.0262
1976.00,0.0263
1975.00,0.0263
1974.00,0.0262
1973.00,0.0260
1972.00,0.0259
1971.00,0.0259
1970.00,0.0260
1969.00,0.0261
1968.00,0.0260
1967.00,0.0258
1966.00,0.0257
1965.00,0.0256
1964.00,0.0256
1963.00,0.0257
1962.00,0.0259
1961.00,0.0259
1960.00,0.0257
1959.00,0.0255
1958.00,0.0252
1957.00,0.0249
1956.00,0.0247
1955.00,0.0246
1954.00,0.0246
1953.00,0.0246
1952.00,0.0245
1951.00,0.0244
1950.00,0.0243
1949.00,0.0244
1948.00,0.0244
1947.00,0.0246
1946.00,0.0248
1945.00,0.0249
1944.00,0.0250
1943.00,0.0249
1942.00,0.0247
1941.00,0.0245
1940.00,0.0245
1939.00,0.0244
1938.00,0.0244
1937.00,0.0243
1936.00,0.0243
1935.00,0.0242
1934.00,0.0241
1933.00,0.0242
1932.00,0.0242
1931.00,0.0242
1930.00,0.0241
1929.00,0.0241
1928.00,0.0240
1927.00,0.0241
1926.00,0.0242
1925.00,0.0243
1924.00,0.0244
1923.00,0.0243
1922.00,0.0242
1921.00,0.0241
1920.00,0.0241
1919.00,0.0240
1918.00,0.0239
1917.00,0.0238
1916.00,0.0238
1915.00,0.0237
1914.00,0.0236
1913.00,0.0235
1912.00,0.0235
1911.00,0.0235
1910.00,0.0235
1909.00,0.0235
1908.00,0.0235
1907.00,0.0234
1906.00,0.0234
1905.00,0.0234
1904.00,0.0233
1903.00,0.0232
1902.00,0.0232
1901.00,0.0231
1900.00,0.0231
1899.00,0.0230
1898.00,0.0230
1897.00,0.0230
1896.00,0.0231
1895.00,0.0230
1894.00,0.0230
1893.00,0.0230
1892.00,0.0230
1891.00,0.0229
1890.00,0.0228
1889.00,0.0226
1888.00,0.0225
1887.00,0.0225
1886.00,0.0225
1885.00,0.0225
1884.00,0.0225
1883.00,0.0224
1882.00,0.0224
1881.00,0.0223
1880.00,0.0223
1879.00,0.0222
1878.00,0.0220
1877.00,0.0220
1876.00,0.0219
1875.00,0.0219
1874.00,0.0219
1873.00,0.0221
1872.00,0.0222
1871.00,0.0223
1870.00,0.0222
1869.00,0.0219
1868.00,0.0217
1867.00,0.0217
1866.00,0.0217
1865.00,0.0217
1864.00,0.0216
1863.00,0.0215
1862.00,0.0213
1861.00,0.0213
1860.00,0.0212
1859.00,0.0212
1858.00,0.0212
1857.00,0.0213
1856.00,0.0213
1855.00,0.0213
1854.00,0.0212
1853.00,0.0211
1852.00,0.0210
1851.00,0.0210
1850.00,0.0210
1849.00,0.0209
1848.00,0.0210
1847.00,0.0210
1846.00,0.0210
1845.00,0.0208
1844.00,0.0205
1843.00,0.0203
1842.00,0.0204
1841.00,0.0205
1840.00,0.0205
1839.00,0.0205
1838.00,0.0204
1837.00,0.0203
1836.00,0.0202
1835.00,0.0202
1834.00,0.0202
1833.00,0.0203
1832.00,0.0205
1831.00,0.0204
1830.00,0.0202
1829.00,0.0200
1828.00,0.0199
1827.00,0.0199
1826.00,0.0198
1825.00,0.0197
1824.00,0.0195
1823.00,0.0195
1822.00,0.0194
1821.00,0.0194
1820.00,0.0193
1819.00,0.0193
1818.00,0.0191
1817.00,0.0191
1816.00,0.0190
1815.00,0.0190
1814.00,0.0190
1813.00,0.0190
1812.00,0.0190
1811.00,0.0189
1810.00,0.0188
1809.00,0.0187
1808.00,0.0186
1807.00,0.0186
1806.00,0.0187
1805.00,0.0188
1804.00,0.0189
1803.00,0.0189
1802.00,0.0189
1801.00,0.0188
1800.00,0.0187
1799.00,0.0186
1798.00,0.0186
1797.00,0.0186
1796.00,0.0188
1795.00,0.0189
1794.00,0.0188
1793.00,0.0187
1792.00,0.0186
1791.00,0.0185
1790.00,0.0185
1789.00,0.0186
1788.00,0.0187
1787.00,0.0188
1786.00,0.0187
1785.00,0.0188
1784.00,0.0189
1783.00,0.0190
1782.00,0.0192
1781.00,0.0193
1780.00,0.0194
1779.00,0.0194
1778.00,0.0195
1777.00,0.0197
1776.00,0.0200
1775.00,0.0203
1774.00,0.0204
1773.00,0.0204
1772.00,0.0203
1771.00,0.0203
1770.00,0.0204
1769.00,0.0205
1768.00,0.0206
1767.00,0.0207
1766.00,0.0209
1765.00,0.0212
1764.00,0.0215
1763.00,0.0216
1762.00,0.0217
1761.00,0.0217
1760.00,0.0219
1759.00,0.0221
1758.00,0.0223
1757.00,0.0223
1756.00,0.0223
1755.00,0.0224
1754.00,0.0226
1753.00,0.0227
1752.00,0.0229
1751.00,0.0231
1750.00,0.0235
1749.00,0.0238
1748.00,0.0241
1747.00,0.0243
1746.00,0.0244
1745.00,0.0246
1744.00,0.0248
1743.00,0.0251
1742.00,0.0253
1741.00,0.0254
1740.00,0.0255
1739.00,0.0256
1738.00,0.0259
1737.00,0.0263
1736.00,0.0265
1735.00,0.0264
1734.00,0.0264
1733.00,0.0266
1732.00,0.0270
1731.00,0.0274
1730.00,0.0277
1729.00,0.0279
1728.00,0.0280
1727.00,0.0282
1726.00,0.0283
1725.00,0.0284
1724.00,0.0286
1723.00,0.0287
1722.00,0.0289
1721.00,0.0292
1720.00,0.0293
1719.00,0.0292
1718.00,0.0291
1717.00,0.0293
1716.00,0.0295
1715.00,0.0297
1714.00,0.0297
1713.00,0.0298
1712.00,0.0298
1711.00,0.0297
1710.00,0.0297
1709.00,0.0298
1708.00,0.0300
1707.00,0.0301
1706.00,0.0301
1705.00,0.0302
1704.00,0.0303
1703.00,0.0305
1702.00,0.0305
1701.00,0.0301
1700.00,0.0297
1699.00,0.0295
1698.00,0.0298
1697.00,0.0300
1696.00,0.0298
1695.00,0.0294
1694.00,0.0293
1693.00,0.0295
1692.00,0.0297
1691.00,0.0298
1690.00,0.0298
1689.00,0.0299
1688.00,0.0300
1687.00,0.0301
1686.00,0.0300
1685.00,0.0297
1684.00,0.0297
1683.00,0.0299
1682.00,0.0300
1681.00,0.0302
1680.00,0.0303
1679.00,0.0304
1678.00,0.0305
1677.00,0.0306
1676.00,0.0305
1675.00,0.0305
1674.00,0.0306
1673.00,0.0308
1672.00,0.0311
1671.00,0.0313
1670.00,0.0314
1669.00,0.0315
1668.00,0.0315
1667.00,0.0316
1666.00,0.0317
1665.00,0.0319
1664.00,0.0320
1663.00,0.0321
1662.00,0.0322
1661.00,0.0323
1660.00,0.0325
1659.00,0.0327
1658.00,0.0329
1657.00,0.0331
1656.00,0.0335
1655.00,0.0336
1654.00,0.0336
1653.00,0.0337
1652.00,0.0336
1651.00,0.0338
1650.00,0.0343
1649.00,0.0348
1648.00,0.0350
1647.00,0.0352
1646.00,0.0353
1645.00,0.0353
1644.00,0.0354
1643.00,0.0356
1642.00,0.0358
1641.00,0.0359
1640.00,0.0361
1639.00,0.0362
1638.00,0.0364
1637.00,0.0366
1636.00,0.0370
1635.00,0.0373
1634.00,0.0374
1633.00,0.0375
1632.00,0.0377
1631.00,0.0379
1630.00,0.0381
1629.00,0.0384
1628.00,0.0387
1627.00,0.0389
1626.00,0.0391
1625.00,0.0394
1624.00,0.0396
1623.00,0.0399
1622.00,0.0401
1621.00,0.0402
1620.00,0.0403
1619.00,0.0404
1618.00,0.0404
1617.00,0.0406
1616.00,0.0408
1615.00,0.0411
1614.00,0.0414
1613.00,0.0415
1612.00,0.0416
1611.00,0.0417
1610.00,0.0420
1609.00,0.0422
1608.00,0.0424
1607.00,0.0426
1606.00,0.0428
1605.00,0.0429
1604.00,0.0430
1603.00,0.0433
1602.00,0.0434
1601.00,0.0436
1600.00,0.0437
1599.00,0.0438
1598.00,0.0439
1597.00,0.0441
1596.00,0.0443
1595.00,0.0445
1594.00,0.0446
1593.00,0.0447
1592.00,0.0448
1591.00,0.0449
1590.00,0.0451
1589.00,0.0452
1588.00,0.0452
1587.00,0.0453
1586.00,0.0454
1585.00,0.0455
1584.00,0.0455
1583.00,0.0456
1582.00,0.0457
1581.00,0.0458
1580.00,0.0458
1579.00,0.0459
1578.00,0.0460
1577.00,0.0460
1576.00,0.0462
1575.00,0.0463
1574.00,0.0464
1573.00,0.0465
1572.00,0.0465
1571.00,0.0465
1570.00,0.0466
1569.00,0.0467
1568.00,0.0466
1567.00,0.0466
1566.00,0.0466
1565.00,0.0465
1564.00,0.0465
1563.00,0.0465
1562.00,0.0464
1561.00,0.0461
1560.00,0.0459
1559.00,0.0467
1558.00,0.0471
1557.00,0.0466
1556.00,0.0463
1555.00,0.0461
1554.00,0.0459
1553.00,0.0457
1552.00,0.0456
1551.00,0.0456
1550.00,0.0456
1549.00,0.0455
1548.00,0.0452
1547.00,0.0450
1546.00,0.0449
1545.00,0.0448
1544.00,0.0449
1543.00,0.0448
1542.00,0.0444
1541.00,0.0441
1540.00,0.0442
1539.00,0.0441
1538.00,0.0437
1537.00,0.0435
1536.00,0.0435
1535.00,0.0435
1534.00,0.0435
1533.00,0.0435
1532.00,0.0433
1531.00,0.0430
1530.00,0.0428
1529.00,0.0427
1528.00,0.0427
1527.00,0.0427
1526.00,0.0426
1525.00,0.0424
1524.00,0.0423
1523.00,0.0421
1522.00,0.0420
1521.00,0.0420
1520.00,0.0419
1519.00,0.0418
1518.00,0.0417
1517.00,0.0417
1516.00,0.0416
1515.00,0.0414
1514.00,0.0411
1513.00,0.0409
1512.00,0.0407
1511.00,0.0407
1510.00,0.0408
1509.00,0.0408
1508.00,0.0409
1507.00,0.0410
1506.00,0.0406
1505.00,0.0400
1504.00,0.0396
1503.00,0.0395
1502.00,0.0395
1501.00,0.0393
1500.00,0.0392
1499.00,0.0390
1498.00,0.0388
1497.00,0.0388
1496.00,0.0388
1495.00,0.0388
1494.00,0.0389
1493.00,0.0389
1492.00,0.0390
1491.00,0.0392
1490.00,0.0394
1489.00,0.0396
1488.00,0.0396
1487.00,0.0394
1486.00,0.0392
1485.00,0.0390
1484.00,0.0388
1483.00,0.0387
1482.00,0.0387
1481.00,0.0387
1480.00,0.0387
1479.00,0.0387
1478.00,0.0387
1477.00,0.0388
1476.00,0.0389
1475.00,0.0389
1474.00,0.0389
1473.00,0.0390
1472.00,0.0390
1471.00,0.0389
1470.00,0.0388
1469.00,0.0388
1468.00,0.0388
1467.00,0.0388
1466.00,0.0389
1465.00,0.0390
1464.00,0.0390
1463.00,0.0390
1462.00,0.0390
1461.00,0.0390
1460.00,0.0391
1459.00,0.0390
1458.00,0.0390
1457.00,0.0392
1456.00,0.0393
1455.00,0.0393
1454.00,0.0394
1453.00,0.0395
1452.00,0.0396
1451.00,0.0398
1450.00,0.0399
1449.00,0.0401
1448.00,0.0403
1447.00,0.0404
1446.00,0.0403
1445.00,0.0403
1444.00,0.0403
1443.00,0.0404
1442.00,0.0405
1441.00,0.0405
1440.00,0.0407
1439.00,0.0407
1438.00,0.0407
1437.00,0.0409
1436.00,0.0411
1435.00,0.0412
1434.00,0.0413
1433.00,0.0413
1432.00,0.0414
1431.00,0.0415
1430.00,0.0416
1429.00,0.0417
1428.00,0.0418
1427.00,0.0418
1426.00,0.0418
1425.00,0.0419
1424.00,0.0420
1423.00,0.0421
1422.00,0.0421
1421.00,0.0420
1420.00,0.0421
1419.00,0.0423
1418.00,0.0425
1417.00,0.0426
1416.00,0.0427
1415.00,0.0427
1414.00,0.0426
1413.00,0.0425
1412.00,0.0426
1411.00,0.0427
1410.00,0.0427
1409.00,0.0427
1408.00,0.0427
1407.00,0.0428
1406.00,0.0429
1405.00,0.0430
1404.00,0.0432
1403.00,0.0433
1402.00,0.0434
1401.00,0.0435
1400.00,0.0436
1399.00,0.0438
1398.00,0.0440
1397.00,0.0442
1396.00,0.0443
1395.00,0.0444
1394.00,0.0444
1393.00,0.0443
1392.00,0.0443
1391.00,0.0442
1390.00,0.0442
1389.00,0.0443
1388.00,0.0444
1387.00,0.0446
1386.00,0.0447
1385.00,0.0448
1384.00,0.0448
1383.00,0.0449
1382.00,0.0449
1381.00,0.0449
1380.00,0.0449
1379.00,0.0450
1378.00,0.0450
1377.00,0.0451
1376.00,0.0452
1375.00,0.0453
1374.00,0.0455
1373.00,0.0455
1372.00,0.0454
1371.00,0.0453
1370.00,0.0453
1369.00,0.0453
1368.00,0.0453
1367.00,0.0452
1366.00,0.0451
1365.00,0.0451
1364.00,0.0451
1363.00,0.0453
1362.00,0.0454
1361.00,0.0454
1360.00,0.0453
1359.00,0.0453
1358.00,0.0452
1357.00,0.0450
1356.00,0.0450
1355.00,0.0449
1354.00,0.0449
1353.00,0.0449
1352.00,0.0449
1351.00,0.0448
1350.00,0.0447
1349.00,0.0447
1348.00,0.0447
1347.00,0.0447
1346.00,0.0447
1345.00,0.0447
1344.00,0.0447
1343.00,0.0446
1342.00,0.0447
1341.00,0.0447
1340.00,0.0449
1339.00,0.0450
1338.00,0.0450
1337.00,0.0449
1336.00,0.0448
1335.00,0.0447
1334.00,0.0446
1333.00,0.0445
1332.00,0.0444
1331.00,0.0444
1330.00,0.0443
1329.00,0.0443
1328.00,0.0442
1327.00,0.0441
1326.00,0.0441
1325.00,0.0441
1324.00,0.0441
1323.00,0.0441
1322.00,0.0440
1321.00,0.0440
1320.00,0.0441
1319.00,0.0441
1318.00,0.0442
1317.00,0.0442
1316.00,0.0442
1315.00,0.0442
1314.00,0.0442
1313.00,0.0441
1312.00,0.0441
1311.00,0.0440
1310.00,0.0440
1309.00,0.0439
1308.00,0.0439
1307.00,0.0439
1306.00,0.0439
1305.00,0.0439
1304.00,0.0439
1303.00,0.0439
1302.00,0.0439
1301.00,0.0439
1300.00,0.0439
1299.00,0.0439
1298.00,0.0439
1297.00,0.0439
1296.00,0.0439
1295.00,0.0439
1294.00,0.0439
1293.00,0.0440
1292.00,0.0440
1291.00,0.0441
1290.00,0.0441
1289.00,0.0442
1288.00,0.0443
1287.00,0.0443
1286.00,0.0444
1285.00,0.0444
1284.00,0.0444
1283.00,0.0444
1282.00,0.0444
1281.00,0.0444
1280.00,0.0445
1279.00,0.0446
1278.00,0.0447
1277.00,0.0448
1276.00,0.0449
1275.00,0.0449
1274.00,0.0450
1273.00,0.0450
1272.00,0.0450
1271.00,0.0450
1270.00,0.0450
1269.00,0.0450
1268.00,0.0450
1267.00,0.0451
1266.00,0.0451
1265.00,0.0451
1264.00,0.0451
1263.00,0.0451
1262.00,0.0451
1261.00,0.0452
1260.00,0.0454
1259.00,0.0455
1258.00,0.0456
1257.00,0.0457
1256.00,0.0457
1255.00,0.0458
1254.00,0.0458
1253.00,0.0459
1252.00,0.0461
1251.00,0.0461
1250.00,0.0462
1249.00,0.0462
1248.00,0.0462
1247.00,0.0462
1246.00,0.0462
1245.00,0.0463
1244.00,0.0463
1243.00,0.0463
1242.00,0.0463
1241.00,0.0463
1240.00,0.0463
1239.00,0.0463
1238.00,0.0463
1237.00,0.0463
1236.00,0.0463
1235.00,0.0463
1234.00,0.0462
1233.00,0.0462
1232.00,0.0461
1231.00,0.0461
1230.00,0.0461
1229.00,0.0461
1228.00,0.0461
1227.00,0.0460
1226.00,0.0460
1225.00,0.0460
1224.00,0.0460
1223.00,0.0460
1222.00,0.0459
1221.00,0.0458
1220.00,0.0457
1219.00,0.0457
1218.00,0.0456
1217.00,0.0456
1216.00,0.0456
1215.00,0.0455
1214.00,0.0455
1213.00,0.0455
1212.00,0.0454
1211.00,0.0454
1210.00,0.0454
1209.00,0.0454
1208.00,0.0454
1207.00,0.0454
1206.00,0.0454
1205.00,0.0454
1204.00,0.0454
1203.00,0.0453
1202.00,0.0453
1201.00,0.0453
1200.00,0.0452
1199.00,0.0451
1198.00,0.0450
1197.00,0.0449
1196.00,0.0449
1195.00,0.0449
1194.00,0.0449
1193.00,0.0449
1192.00,0.0449
1191.00,0.0449
1190.00,0.0448
1189.00,0.0448
1188.00,0.0448
1187.00,0.0448
1186.00,0.0448
1185.00,0.0448
1184.00,0.0448
1183.00,0.0448
1182.00,0.0448
1181.00,0.0448
1180.00,0.0450
1179.00,0.0451
1178.00,0.0452
1177.00,0.0452
1176.00,0.0452
1175.00,0.0452
1174.00,0.0453
1173.00,0.0453
1172.00,0.0452
1171.00,0.0452
1170.00,0.0452
1169.00,0.0453
1168.00,0.0454
1167.00,0.0456
1166.00,0.0457
1165.00,0.0458
1164.00,0.0457
1163.00,0.0457
1162.00,0.0456
1161.00,0.0455
1160.00,0.0456
1159.00,0.0456
1158.00,0.0456
1157.00,0.0455
1156.00,0.0454
1155.00,0.0454
1154.00,0.0454
1153.00,0.0455
1152.00,0.0455
1151.00,0.0455
1150.00,0.0455
1149.00,0.0455
1148.00,0.0456
1147.00,0.0456
1146.00,0.0456
1145.00,0.0456
1144.00,0.0455
1143.00,0.0454
1142.00,0.0453
1141.00,0.0453
1140.00,0.0453
1139.00,0.0453
1138.00,0.0454
1137.00,0.0454
1136.00,0.0455
1135.00,0.0456
1134.00,0.0456
1133.00,0.0457
1132.00,0.0457
1131.00,0.0458
1130.00,0.0458
1129.00,0.0459
1128.00,0.0460
1127.00,0.0461
1126.00,0.0462
1125.00,0.0464
1124.00,0.0465
1123.00,0.0466
1122.00,0.0466
1121.00,0.0467
1120.00,0.0469
1119.00,0.0470
1118.00,0.0472
1117.00,0.0474
1116.00,0.0475
1115.00,0.0476
1114.00,0.0476
1113.00,0.0476
1112.00,0.0476
1111.00,0.0477
1110.00,0.0478
1109.00,0.0479
1108.00,0.0480
1107.00,0.0481
1106.00,0.0482
1105.00,0.0483
1104.00,0.0484
1103.00,0.0485
1102.00,0.0486
1101.00,0.0486
1100.00,0.0486
1099.00,0.0487
1098.00,0.0488
1097.00,0.0489
1096.00,0.0489
1095.00,0.0488
1094.00,0.0488
1093.00,0.0489
1092.00,0.0490
1091.00,0.0491
1090.00,0.0491
1089.00,0.0491
1088.00,0.0492
1087.00,0.0493
1086.00,0.0493
1085.00,0.0493
1084.00,0.0494
1083.00,0.0495
1082.00,0.0497
1081.00,0.0498
1080.00,0.0498
1079.00,0.0498
1078.00,0.0498
1077.00,0.0499
1076.00,0.0500
1075.00,0.0501
1074.00,0.0501
1073.00,0.0502
1072.00,0.0504
1071.00,0.0505
1070.00,0.0505
1069.00,0.0505
1068.00,0.0506
1067.00,0.0507
1066.00,0.0508
1065.00,0.0508
1064.00,0.0508
1063.00,0.0508
1062.00,0.0508
1061.00,0.0509
1060.00,0.0511
1059.00,0.0512
1058.00,0.0513
1057.00,0.0513
1056.00,0.0513
1055.00,0.0513
1054.00,0.0514
1053.00,0.0516
1052.00,0.0518
1051.00,0.0521
1050.00,0.0523
1049.00,0.0524
1048.00,0.0524
1047.00,0.0525
1046.00,0.0525
1045.00,0.0525
1044.00,0.0526
1043.00,0.0526
1042.00,0.0527
1041.00,0.0528
1040.00,0.0529
1039.00,0.0531
1038.00,0.0532
1037.00,0.0534
1036.00,0.0536
1035.00,0.0536
1034.00,0.0537
1033.00,0.0537
1032.00,0.0537
1031.00,0.0535
1030.00,0.0533
1029.00,0.0530
1028.00,0.0528
1027.00,0.0525
1026.00,0.0523
1025.00,0.0520
1024.00,0.0519
1023.00,0.0517
1022.00,0.0515
1021.00,0.0514
1020.00,0.0513
1019.00,0.0512
1018.00,0.0512
1017.00,0.0512
1016.00,0.0512
1015.00,0.0512
1014.00,0.0513
1013.00,0.0513
1012.00,0.0514
1011.00,0.0514
1010.00,0.0514
1009.00,0.0514
1008.00,0.0514
1007.00,0.0515
1006.00,0.0515
1005.00,0.0515
1004.00,0.0514
1003.00,0.0513
1002.00,0.0512
1001.00,0.0510
1000.00,0.0509
999.00,0.0507
998.00,0.0505
997.00,0.0502
996.00,0.0498
995.00,0.0495
994.00,0.0492
993.00,0.0490
992.00,0.0489
991.00,0.0487
990.00,0.0485
989.00,0.0483
988.00,0.0481
987.00,0.0480
986.00,0.0479
985.00,0.0478
984.00,0.0476
983.00,0.0474
982.00,0.0473
981.00,0.0472
980.00,0.0471
979.00,0.0470
978.00,0.0469
977.00,0.0468
976.00,0.0467
975.00,0.0466
974.00,0.0465
973.00,0.0464
972.00,0.0464
971.00,0.0464
970.00,0.0464
969.00,0.0465
968.00,0.0465
967.00,0.0464
966.00,0.0463
965.00,0.0461
964.00,0.0460
963.00,0.0460
962.00,0.0459
961.00,0.0459
960.00,0.0459
959.00,0.0458
958.00,0.0457
957.00,0.0456
956.00,0.0456
955.00,0.0456
954.00,0.0457
953.00,0.0457
952.00,0.0457
951.00,0.0457
950.00,0.0457
949.00,0.0457
948.00,0.0457
947.00,0.0457
946.00,0.0458
945.00,0.0459
944.00,0.0461
943.00,0.0461
942.00,0.0461
941.00,0.0461
940.00,0.0461
939.00,0.0461
938.00,0.0460
937.00,0.0459
936.00,0.0459
935.00,0.0459
934.00,0.0458
933.00,0.0458
932.00,0.0458
931.00,0.0458
930.00,0.0457
929.00,0.0457
928.00,0.0458
927.00,0.0459
926.00,0.0459
925.00,0.0460
924.00,0.0461
923.00,0.0462
922.00,0.0463
921.00,0.0463
920.00,0.0464
919.00,0.0465
918.00,0.0466
917.00,0.0468
916.00,0.0469
915.00,0.0469
914.00,0.0470
913.00,0.0471
912.00,0.0471
911.00,0.0472
910.00,0.0471
909.00,0.0469
908.00,0.0468
907.00,0.0467
906.00,0.0466
905.00,0.0465
904.00,0.0464
903.00,0.0463
902.00,0.0462
901.00,0.0462
900.00,0.0462
899.00,0.0462
898.00,0.0462
897.00,0.0462
896.00,0.0461
895.00,0.0459
894.00,0.0458
893.00,0.0458
892.00,0.0458
891.00,0.0458
890.00,0.0459
889.00,0.0459
888.00,0.0458
887.00,0.0457
886.00,0.0456
885.00,0.0455
884.00,0.0455
883.00,0.0455
882.00,0.0455
881.00,0.0455
880.00,0.0454
879.00,0.0453
878.00,0.0452
877.00,0.0452
876.00,0.0452
875.00,0.0452
874.00,0.0452
873.00,0.0451
872.00,0.0449
871.00,0.0448
870.00,0.0447
869.00,0.0447
868.00,0.0447
867.00,0.0447
866.00,0.0446
865.00,0.0445
864.00,0.0444
863.00,0.0445
862.00,0.0445
861.00,0.0446
860.00,0.0447
859.00,0.0447
858.00,0.0447
857.00,0.0448
856.00,0.0449
855.00,0.0450
854.00,0.0451
853.00,0.0450
852.00,0.0450
851.00,0.0449
850.00,0.0449
849.00,0.0449
848.00,0.0450
847.00,0.0451
846.00,0.0453
845.00,0.0454
844.00,0.0456
843.00,0.0456
842.00,0.0456
841.00,0.0456
840.00,0.0456
839.00,0.0457
838.00,0.0459
837.00,0.0462
836.00,0.0464
835.00,0.0465
834.00,0.0465
833.00,0.0464
832.00,0.0465
831.00,0.0467
830.00,0.0469
829.00,0.0470
828.00,0.0471
827.00,0.0471
826.00,0.0471
825.00,0.0470
824.00,0.0469
823.00,0.0469
822.00,0.0469
821.00,0.0469
820.00,0.0470
819.00,0.0470
818.00,0.0472
817.00,0.0472
816.00,0.0472
815.00,0.0472
814.00,0.0472
813.00,0.0471
812.00,0.0471
811.00,0.0472
810.00,0.0474
809.00,0.0476
808.00,0.0478
807.00,0.0478
806.00,0.0478
805.00,0.0478
804.00,0.0478
803.00,0.0478
802.00,0.0480
801.00,0.0482
800.00,0.0484
799.00,0.0486
798.00,0.0486
797.00,0.0486
796.00,0.0487
795.00,0.0489
794.00,0.0490
793.00,0.0491
792.00,0.0492
791.00,0.0492
790.00,0.0492
789.00,0.0493
788.00,0.0494
787.00,0.0495
786.00,0.0496
785.00,0.0497
784.00,0.0497
783.00,0.0497
782.00,0.0497
781.00,0.0499
780.00,0.0500
779.00,0.0501
778.00,0.0501
777.00,0.0501
776.00,0.0501
775.00,0.0501
774.00,0.0501
773.00,0.0501
772.00,0.0502
771.00,0.0502
770.00,0.0502
769.00,0.0500
768.00,0.0499
767.00,0.0499
766.00,0.0498
765.00,0.0499
764.00,0.0500
763.00,0.0501
762.00,0.0502
761.00,0.0502
760.00,0.0503
759.00,0.0505
758.00,0.0508
757.00,0.0510
756.00,0.0512
755.00,0.0512
754.00,0.0512
753.00,0.0511
752.00,0.0511
751.00,0.0513
750.00,0.0514
749.00,0.0516
748.00,0.0517
747.00,0.0516
746.00,0.0514
745.00,0.0512
744.00,0.0511
743.00,0.0511
742.00,0.0511
741.00,0.0510
740.00,0.0510
739.00,0.0509
738.00,0.0509
737.00,0.0509
736.00,0.0510
735.00,0.0510
734.00,0.0511
733.00,0.0511
732.00,0.0512
731.00,0.0513
730.00,0.0514
729.00,0.0515
728.00,0.0515
727.00,0.0514
726.00,0.0514
725.00,0.0515
724.00,0.0516
723.00,0.0517
722.00,0.0517
721.00,0.0519
720.00,0.0521
719.00,0.0523
718.00,0.0524
717.00,0.0523
716.00,0.0522
715.00,0.0522
714.00,0.0523
713.00,0.0526
712.00,0.0530
711.00,0.0532
710.00,0.0533
709.00,0.0531
708.00,0.0530
707.00,0.0531
706.00,0.0535
705.00,0.0540
704.00,0.0545
703.00,0.0547
702.00,0.0547
701.00,0.0546
700.00,0.0547
699.00,0.0549
698.00,0.0551
697.00,0.0552
696.00,0.0552
695.00,0.0551
694.00,0.0549
693.00,0.0548
692.00,0.0549
691.00,0.0552
690.00,0.0553
689.00,0.0552
688.00,0.0550
687.00,0.0549
686.00,0.0548
685.00,0.0548
684.00,0.0547
683.00,0.0546
682.00,0.0547
681.00,0.0550
680.00,0.0552
679.00,0.0554
678.00,0.0555
677.00,0.0558
676.00,0.0560
675.00,0.0561
674.00,0.0560
673.00,0.0557
672.00,0.0552
671.00,0.0547
670.00,0.0547
669.00,0.0557
668.00,0.0581
667.00,0.0596
666.00,0.0593
665.00,0.0583
664.00,0.0574
663.00,0.0567
662.00,0.0562
661.00,0.0562
660.00,0.0568
659.00,0.0574
658.00,0.0578
657.00,0.0578
656.00,0.0577
655.00,0.0577
654.00,0.0578
653.00,0.0580
652.00,0.0581
651.00,0.0579
650.00,0.0576
