Created as New Dataset,
cm-1,A
4000.00,0.0126
3999.00,0.0126
3998.00,0.0126
3997.00,0.0126
3996.00,0.0127
3995.00,0.0127
3994.00,0.0127
3993.00,0.0127
3992.00,0.0127
3991.00,0.0127
3990.00,0.0126
3989.00,0.0126
3988.00,0.0125
3987.00,0.0125
3986.00,0.0125
3985.00,0.0125
3984.00,0.0125
3983.00,0.0126
3982.00,0.0126
3981.00,0.0126
3980.00,0.0126
3979.00,0.0127
3978.00,0.0127
3977.00,0.0127
3976.00,0.0127
3975.00,0.0127
3974.00,0.0127
3973.00,0.0127
3972.00,0.0127
3971.00,0.0126
3970.00,0.0126
3969.00,0.0126
3968.00,0.0125
3967.00,0.0125
3966.00,0.0125
3965.00,0.0126
3964.00,0.0126
3963.00,0.0126
3962.00,0.0126
3961.00,0.0127
3960.00,0.0127
3959.00,0.0127
3958.00,0.0127
3957.00,0.0127
3956.00,0.0126
3955.00,0.0126
3954.00,0.0127
3953.00,0.0127
3952.00,0.0128
3951.00,0.0128
3950.00,0.0128
3949.00,0.0128
3948.00,0.0128
3947.00,0.0129
3946.00,0.0130
3945.00,0.0130
3944.00,0.0130
3943.00,0.0130
3942.00,0.0129
3941.00,0.0129
3940.00,0.0129
3939.00,0.0128
3938.00,0.0127
3937.00,0.0127
3936.00,0.0127
3935.00,0.0128
3934.00,0.0129
3933.00,0.0130
3932.00,0.0130
3931.00,0.0130
3930.00,0.0130
3929.00,0.0131
3928.00,0.0131
3927.00,0.0131
3926.00,0.0130
3925.00,0.0129
3924.00,0.0129
3923.00,0.0130
3922.00,0.0130
3921.00,0.0130
3920.00,0.0130
3919.00,0.0130
3918.00,0.0130
3917.00,0.0130
3916.00,0.0129
3915.00,0.0128
3914.00,0.0127
3913.00,0.0126
3912.00,0.0125
3911.00,0.0125
3910.00,0.0125
3909.00,0.0127
3908.00,0.0129
3907.00,0.0130
3906.00,0.0132
3905.00,0.0132
3904.00,0.0133
3903.00,0.0135
3902.00,0.0138
3901.00,0.0139
3900.00,0.0138
3899.00,0.0135
3898.00,0.0133
3897.00,0.0131
3896.00,0.0131
3895.00,0.0131
3894.00,0.0130
3893.00,0.0130
3892.00,0.0128
3891.00,0.0127
3890.00,0.0128
3889.00,0.0130
3888.00,0.0133
3887.00,0.0132
3886.00,0.0130
3885.00,0.0129
3884.00,0.0133
3883.00,0.0137
3882.00,0.0138
3881.00,0.0135
3880.00,0.0131
3879.00,0.0130
3878.00,0.0131
3877.00,0.0133
3876.00,0.0133
3875.00,0.0130
3874.00,0.0129
3873.00,0.0132
3872.00,0.0135
3871.00,0.0136
3870.00,0.0133
3869.00,0.0132
3868.00,0.0134
3867.00,0.0137
3866.00,0.0137
3865.00,0.0134
3864.00,0.0132
3863.00,0.0132
3862.00,0.0133
3861.00,0.0131
3860.00,0.0129
3859.00,0.0128
3858.00,0.0128
3857.00,0.0130
3856.00,0.0133
3855.00,0.0133
3854.00,0.0132
3853.00,0.0132
3852.00,0.0134
3851.00,0.0135
3850.00,0.0134
3849.00,0.0131
3848.00,0.0128
3847.00,0.0127
3846.00,0.0127
3845.00,0.0127
3844.00,0.0127
3843.00,0.0127
3842.00,0.0130
3841.00,0.0132
3840.00,0.0134
3839.00,0.0134
3838.00,0.0133
3837.00,0.0133
3836.00,0.0133
3835.00,0.0133
3834.00,0.0132
3833.00,0.0130
3832.00,0.0128
3831.00,0.0126
3830.00,0.0126
3829.00,0.0128
3828.00,0.0128
3827.00,0.0126
3826.00,0.0125
3825.00,0.0127
3824.00,0.0130
3823.00,0.0132
3822.00,0.0129
3821.00,0.0127
3820.00,0.0128
3819.00,0.0132
3818.00,0.0134
3817.00,0.0131
3816.00,0.0126
3815.00,0.0124
3814.00,0.0125
3813.00,0.0126
3812.00,0.0125
3811.00,0.0122
3810.00,0.0122
3809.00,0.0123
3808.00,0.0122
3807.00,0.0120
3806.00,0.0121
3805.00,0.0125
3804.00,0.0129
3803.00,0.0130
3802.00,0.0127
3801.00,0.0126
3800.00,0.0128
3799.00,0.0131
3798.00,0.0131
3797.00,0.0128
3796.00,0.0124
3795.00,0.0123
3794.00,0.0123
3793.00,0.0123
3792.00,0.0122
3791.00,0.0121
3790.00,0.0120
3789.00,0.0120
3788.00,0.0121
3787.00,0.0121
3786.00,0.0121
3785.00,0.0121
3784.00,0.0121
3783.00,0.0123
3782.00,0.0124
3781.00,0.0124
3780.00,0.0122
3779.00,0.0121
3778.00,0.0122
3777.00,0.0122
3776.00,0.0122
3775.00,0.0121
3774.00,0.0120
3773.00,0.0120
3772.00,0.0120
3771.00,0.0120
3770.00,0.0120
3769.00,0.0122
3768.00,0.0124
3767.00,0.0126
3766.00,0.0125
3765.00,0.0123
3764.00,0.0123
3763.00,0.0124
3762.00,0.0126
3761.00,0.0125
3760.00,0.0124
3759.00,0.0124
3758.00,0.0125
3757.00,0.0125
3756.00,0.0125
3755.00,0.0126
3754.00,0.0126
3753.00,0.0124
3752.00,0.0124
3751.00,0.0125
3750.00,0.0128
3749.00,0.0130
3748.00,0.0133
3747.00,0.0136
3746.00,0.0137
3745.00,0.0132
3744.00,0.0128
3743.00,0.0128
3742.00,0.0129
3741.00,0.0129
3740.00,0.0128
3739.00,0.0127
3738.00,0.0128
3737.00,0.0129
3736.00,0.0130
3735.00,0.0132
3734.00,0.0134
3733.00,0.0133
3732.00,0.0129
3731.00,0.0126
3730.00,0.0125
3729.00,0.0126
3728.00,0.0126
3727.00,0.0125
3726.00,0.0124
3725.00,0.0126
3724.00,0.0127
3723.00,0.0127
3722.00,0.0127
3721.00,0.0126
3720.00,0.0126
3719.00,0.0125
3718.00,0.0124
3717.00,0.0123
3716.00,0.0124
3715.00,0.0125
3714.00,0.0126
3713.00,0.0126
3712.00,0.0127
3711.00,0.0129
3710.00,0.0131
3709.00,0.0132
3708.00,0.0131
3707.00,0.0129
3706.00,0.0128
3705.00,0.0128
3704.00,0.0130
3703.00,0.0131
3702.00,0.0131
3701.00,0.0132
3700.00,0.0133
3699.00,0.0133
3698.00,0.0133
3697.00,0.0132
3696.00,0.0131
3695.00,0.0132
3694.00,0.0133
3693.00,0.0134
3692.00,0.0135
3691.00,0.0137
3690.00,0.0138
3689.00,0.0138
3688.00,0.0138
3687.00,0.0137
3686.00,0.0137
3685.00,0.0136
3684.00,0.0134
3683.00,0.0132
3682.00,0.0131
3681.00,0.0130
3680.00,0.0129
3679.00,0.0131
3678.00,0.0135
3677.00,0.0139
3676.00,0.0139
3675.00,0.0140
3674.00,0.0142
3673.00,0.0145
3672.00,0.0146
3671.00,0.0144
3670.00,0.0141
3669.00,0.0141
3668.00,0.0143
3667.00,0.0142
3666.00,0.0141
3665.00,0.0138
3664.00,0.0137
3663.00,0.0136
3662.00,0.0136
3661.00,0.0137
3660.00,0.0138
3659.00,0.0140
3658.00,0.0143
3657.00,0.0144
3656.00,0.0146
3655.00,0.0149
3654.00,0.0153
3653.00,0.0156
3652.00,0.0157
3651.00,0.0155
3650.00,0.0157
3649.00,0.0165
3648.00,0.0170
3647.00,0.0171
3646.00,0.0169
3645.00,0.0165
3644.00,0.0162
3643.00,0.0159
3642.00,0.0157
3641.00,0.0156
3640.00,0.0156
3639.00,0.0157
3638.00,0.0158
3637.00,0.0159
3636.00,0.0161
3635.00,0.0161
3634.00,0.0160
3633.00,0.0161
3632.00,0.0164
3631.00,0.0169
3630.00,0.0171
3629.00,0.0174
3628.00,0.0177
3627.00,0.0179
3626.00,0.0179
3625.00,0.0177
3624.00,0.0175
3623.00,0.0175
3622.00,0.0177
3621.00,0.0180
3620.00,0.0183
3619.00,0.0185
3618.00,0.0188
3617.00,0.0189
3616.00,0.0188
3615.00,0.0186
3614.00,0.0184
3613.00,0.0182
3612.00,0.0183
3611.00,0.0185
3610.00,0.0186
3609.00,0.0187
3608.00,0.0187
3607.00,0.0187
3606.00,0.0186
3605.00,0.0185
3604.00,0.0184
3603.00,0.0183
3602.00,0.0183
3601.00,0.0183
3600.00,0.0185
3599.00,0.0186
3598.00,0.0188
3597.00,0.0189
3596.00,0.0190
3595.00,0.0190
3594.00,0.0191
3593.00,0.0191
3592.00,0.0191
3591.00,0.0191
3590.00,0.0193
3589.00,0.0195
3588.00,0.0198
3587.00,0.0200
3586.00,0.0202
3585.00,0.0202
3584.00,0.0200
3583.00,0.0198
3582.00,0.0196
3581.00,0.0196
3580.00,0.0196
3579.00,0.0196
3578.00,0.0197
3577.00,0.0197
3576.00,0.0197
3575.00,0.0196
3574.00,0.0196
3573.00,0.0196
3572.00,0.0196
3571.00,0.0198
3570.00,0.0201
3569.00,0.0204
3568.00,0.0208
3567.00,0.0212
3566.00,0.0215
3565.00,0.0216
3564.00,0.0214
3563.00,0.0211
3562.00,0.0209
3561.00,0.0207
3560.00,0.0206
3559.00,0.0206
3558.00,0.0206
3557.00,0.0205
3556.00,0.0205
3555.00,0.0205
3554.00,0.0206
3553.00,0.0207
3552.00,0.0208
3551.00,0.0209
3550.00,0.0210
3549.00,0.0211
3548.00,0.0212
3547.00,0.0213
3546.00,0.0215
3545.00,0.0216
3544.00,0.0217
3543.00,0.0216
3542.00,0.0215
3541.00,0.0214
3540.00,0.0213
3539.00,0.0214
3538.00,0.0214
3537.00,0.0215
3536.00,0.0215
3535.00,0.0215
3534.00,0.0215
3533.00,0.0215
3532.00,0.0215
3531.00,0.0216
3530.00,0.0217
3529.00,0.0218
3528.00,0.0219
3527.00,0.0221
3526.00,0.0222
3525.00,0.0223
3524.00,0.0224
3523.00,0.0224
3522.00,0.0224
3521.00,0.0223
3520.00,0.0223
3519.00,0.0222
3518.00,0.0222
3517.00,0.0222
3516.00,0.0223
3515.00,0.0223
3514.00,0.0224
3513.00,0.0224
3512.00,0.0225
3511.00,0.0226
3510.00,0.0227
3509.00,0.0228
3508.00,0.0229
3507.00,0.0229
3506.00,0.0229
3505.00,0.0229
3504.00,0.0229
3503.00,0.0230
3502.00,0.0231
3501.00,0.0231
3500.00,0.0231
3499.00,0.0231
3498.00,0.0230
3497.00,0.0230
3496.00,0.0230
3495.00,0.0231
3494.00,0.0231
3493.00,0.0232
3492.00,0.0232
3491.00,0.0232
3490.00,0.0232
3489.00,0.0233
3488.00,0.0234
3487.00,0.0234
3486.00,0.0235
3485.00,0.0236
3484.00,0.0236
3483.00,0.0237
3482.00,0.0237
3481.00,0.0238
3480.00,0.0239
3479.00,0.0239
3478.00,0.0239
3477.00,0.0238
3476.00,0.0238
3475.00,0.0239
3474.00,0.0240
3473.00,0.0240
3472.00,0.0241
3471.00,0.0241
3470.00,0.0241
3469.00,0.0241
3468.00,0.0241
3467.00,0.0241
3466.00,0.0242
3465.00,0.0242
3464.00,0.0242
3463.00,0.0243
3462.00,0.0243
3461.00,0.0243
3460.00,0.0243
3459.00,0.0243
3458.00,0.0244
3457.00,0.0245
3456.00,0.0245
3455.00,0.0246
3454.00,0.0247
3453.00,0.0247
3452.00,0.0247
3451.00,0.0247
3450.00,0.0247
3449.00,0.0248
3448.00,0.0248
3447.00,0.0249
3446.00,0.0250
3445.00,0.0250
3444.00,0.0249
3443.00,0.0249
3442.00,0.0249
3441.00,0.0249
3440.00,0.0249
3439.00,0.0249
3438.00,0.0249
3437.00,0.0250
3436.00,0.0250
3435.00,0.0251
3434.00,0.0251
3433.00,0.0252
3432.00,0.0252
3431.00,0.0252
3430.00,0.0252
3429.00,0.0252
3428.00,0.0253
3427.00,0.0253
3426.00,0.0253
3425.00,0.0253
3424.00,0.0254
3423.00,0.0254
3422.00,0.0254
3421.00,0.0255
3420.00,0.0255
3419.00,0.0256
3418.00,0.0256
3417.00,0.0256
3416.00,0.0256
3415.00,0.0256
3414.00,0.0257
3413.00,0.0257
3412.00,0.0257
3411.00,0.0257
3410.00,0.0257
3409.00,0.0257
3408.00,0.0258
3407.00,0.0258
3406.00,0.0259
3405.00,0.0259
3404.00,0.0260
3403.00,0.0260
3402.00,0.0260
3401.00,0.0260
3400.00,0.0260
3399.00,0.0260
3398.00,0.0260
3397.00,0.0260
3396.00,0.0260
3395.00,0.0261
3394.00,0.0261
3393.00,0.0262
3392.00,0.0262
3391.00,0.0262
3390.00,0.0262
3389.00,0.0261
3388.00,0.0261
3387.00,0.0261
3386.00,0.0262
3385.00,0.0263
3384.00,0.0263
3383.00,0.0263
3382.00,0.0263
3381.00,0.0263
3380.00,0.0263
3379.00,0.0263
3378.00,0.0263
3377.00,0.0264
3376.00,0.0264
3375.00,0.0264
3374.00,0.0265
3373.00,0.0265
3372.00,0.0265
3371.00,0.0265
3370.00,0.0265
3369.00,0.0265
3368.00,0.0265
3367.00,0.0265
3366.00,0.0266
3365.00,0.0266
3364.00,0.0267
3363.00,0.0267
3362.00,0.0267
3361.00,0.0267
3360.00,0.0268
3359.00,0.0268
3358.00,0.0268
3357.00,0.0269
3356.00,0.0269
3355.00,0.0269
3354.00,0.0268
3353.00,0.0267
3352.00,0.0267
3351.00,0.0267
3350.00,0.0267
3349.00,0.0268
3348.00,0.0267
3347.00,0.0267
3346.00,0.0268
3345.00,0.0268
3344.00,0.0268
3343.00,0.0269
3342.00,0.0269
3341.00,0.0269
3340.00,0.0269
3339.00,0.0269
3338.00,0.0269
3337.00,0.0270
3336.00,0.0270
3335.00,0.0271
3334.00,0.0271
3333.00,0.0270
3332.00,0.0270
3331.00,0.0270
3330.00,0.0271
3329.00,0.0271
3328.00,0.0271
3327.00,0.0271
3326.00,0.0271
3325.00,0.0271
3324.00,0.0271
3323.00,0.0271
3322.00,0.0271
3321.00,0.0271
3320.00,0.0271
3319.00,0.0271
3318.00,0.0271
3317.00,0.0271
3316.00,0.0271
3315.00,0.0271
3314.00,0.0271
3313.00,0.0271
3312.00,0.0271
3311.00,0.0271
3310.00,0.0272
3309.00,0.0272
3308.00,0.0272
3307.00,0.0272
3306.00,0.0273
3305.00,0.0273
3304.00,0.0274
3303.00,0.0273
3302.00,0.0273
3301.00,0.0272
3300.00,0.0272
3299.00,0.0271
3298.00,0.0272
3297.00,0.0272
3296.00,0.0272
3295.00,0.0272
3294.00,0.0272
3293.00,0.0272
3292.00,0.0272
3291.00,0.0272
3290.00,0.0272
3289.00,0.0272
3288.00,0.0273
3287.00,0.0273
3286.00,0.0273
3285.00,0.0273
3284.00,0.0273
3283.00,0.0272
3282.00,0.0272
3281.00,0.0272
3280.00,0.0272
3279.00,0.0273
3278.00,0.0273
3277.00,0.0273
3276.00,0.0274
3275.00,0.0274
3274.00,0.0275
3273.00,0.0275
3272.00,0.0275
3271.00,0.0275
3270.00,0.0274
3269.00,0.0274
3268.00,0.0274
3267.00,0.0273
3266.00,0.0273
3265.00,0.0273
3264.00,0.0273
3263.00,0.0273
3262.00,0.0273
3261.00,0.0274
3260.00,0.0274
3259.00,0.0274
3258.00,0.0274
3257.00,0.0275
3256.00,0.0275
3255.00,0.0275
3254.00,0.0274
3253.00,0.0274
3252.00,0.0274
3251.00,0.0274
3250.00,0.0274
3249.00,0.0275
3248.00,0.0275
3247.00,0.0275
3246.00,0.0276
3245.00,0.0276
3244.00,0.0276
3243.00,0.0275
3242.00,0.0275
3241.00,0.0275
3240.00,0.0274
3239.00,0.0274
3238.00,0.0274
3237.00,0.0275
3236.00,0.0275
3235.00,0.0275
3234.00,0.0276
3233.00,0.0276
3232.00,0.0277
3231.00,0.0277
3230.00,0.0278
3229.00,0.0277
3228.00,0.0277
3227.00,0.0277
3226.00,0.0277
3225.00,0.0277
3224.00,0.0277
3223.00,0.0277
3222.00,0.0277
3221.00,0.0277
3220.00,0.0276
3219.00,0.0276
3218.00,0.0276
3217.00,0.0275
3216.00,0.0275
3215.00,0.0275
3214.00,0.0275
3213.00,0.0275
3212.00,0.0276
3211.00,0.0276
3210.00,0.0277
3209.00,0.0277
3208.00,0.0277
3207.00,0.0277
3206.00,0.0277
3205.00,0.0277
3204.00,0.0277
3203.00,0.0277
3202.00,0.0276
3201.00,0.0276
3200.00,0.0277
3199.00,0.0277
3198.00,0.0277
3197.00,0.0277
3196.00,0.0276
3195.00,0.0276
3194.00,0.0276
3193.00,0.0275
3192.00,0.0275
3191.00,0.0275
3190.00,0.0275
3189.00,0.0275
3188.00,0.0276
3187.00,0.0276
3186.00,0.0276
3185.00,0.0276
3184.00,0.0276
3183.00,0.0277
3182.00,0.0276
3181.00,0.0276
3180.00,0.0276
3179.00,0.0275
3178.00,0.0275
3177.00,0.0275
3176.00,0.0275
3175.00,0.0275
3174.00,0.0275
3173.00,0.0274
3172.00,0.0274
3171.00,0.0275
3170.00,0.0275
3169.00,0.0274
3168.00,0.0274
3167.00,0.0273
3166.00,0.0273
3165.00,0.0274
3164.00,0.0274
3163.00,0.0273
3162.00,0.0273
3161.00,0.0273
3160.00,0.0273
3159.00,0.0273
3158.00,0.0274
3157.00,0.0273
3156.00,0.0273
3155.00,0.0272
3154.00,0.0272
3153.00,0.0272
3152.00,0.0272
3151.00,0.0271
3150.00,0.0271
3149.00,0.0271
3148.00,0.0271
3147.00,0.0271
3146.00,0.0271
3145.00,0.0272
3144.00,0.0272
3143.00,0.0272
3142.00,0.0271
3141.00,0.0271
3140.00,0.0271
3139.00,0.0270
3138.00,0.0270
3137.00,0.0271
3136.00,0.0271
3135.00,0.0270
3134.00,0.0270
3133.00,0.0270
3132.00,0.0270
3131.00,0.0270
3130.00,0.0270
3129.00,0.0269
3128.00,0.0269
3127.00,0.0269
3126.00,0.0269
3125.00,0.0269
3124.00,0.0269
3123.00,0.0269
3122.00,0.0269
3121.00,0.0269
3120.00,0.0269
3119.00,0.0269
3118.00,0.0269
3117.00,0.0269
3116.00,0.0269
3115.00,0.0269
3114.00,0.0269
3113.00,0.0269
3112.00,0.0269
3111.00,0.0269
3110.00,0.0268
3109.00,0.0268
3108.00,0.0267
3107.00,0.0267
3106.00,0.0267
3105.00,0.0267
3104.00,0.0267
3103.00,0.0267
3102.00,0.0267
3101.00,0.0267
3100.00,0.0268
3099.00,0.0268
3098.00,0.0268
3097.00,0.0268
3096.00,0.0268
3095.00,0.0268
3094.00,0.0267
3093.00,0.0267
3092.00,0.0266
3091.00,0.0266
3090.00,0.0266
3089.00,0.0266
3088.00,0.0266
3087.00,0.0266
3086.00,0.0266
3085.00,0.0266
3084.00,0.0266
3083.00,0.0266
3082.00,0.0266
3081.00,0.0266
3080.00,0.0266
3079.00,0.0266
3078.00,0.0266
3077.00,0.0266
3076.00,0.0265
3075.00,0.0265
3074.00,0.0265
3073.00,0.0265
3072.00,0.0265
3071.00,0.0265
3070.00,0.0265
3069.00,0.0265
3068.00,0.0265
3067.00,0.0265
3066.00,0.0265
3065.00,0.0265
3064.00,0.0265
3063.00,0.0265
3062.00,0.0264
3061.00,0.0264
3060.00,0.0264
3059.00,0.0263
3058.00,0.0263
3057.00,0.0263
3056.00,0.0263
3055.00,0.0264
3054.00,0.0264
3053.00,0.0264
3052.00,0.0263
3051.00,0.0262
3050.00,0.0262
3049.00,0.0261
3048.00,0.0261
3047.00,0.0261
3046.00,0.0261
3045.00,0.0261
3044.00,0.0261
3043.00,0.0261
3042.00,0.0261
3041.00,0.0261
3040.00,0.0261
3039.00,0.0261
3038.00,0.0261
3037.00,0.0260
3036.00,0.0260
3035.00,0.0260
3034.00,0.0260
3033.00,0.0259
3032.00,0.0259
3031.00,0.0259
3030.00,0.0259
3029.00,0.0259
3028.00,0.0258
3027.00,0.0257
3026.00,0.0257
3025.00,0.0256
3024.00,0.0256
3023.00,0.0256
3022.00,0.0256
3021.00,0.0256
3020.00,0.0256
3019.00,0.0256
3018.00,0.0256
3017.00,0.0256
3016.00,0.0256
3015.00,0.0256
3014.00,0.0256
3013.00,0.0256
3012.00,0.0256
3011.00,0.0256
3010.00,0.0255
3009.00,0.0255
3008.00,0.0254
3007.00,0.0254
3006.00,0.0254
3005.00,0.0254
3004.00,0.0254
3003.00,0.0254
3002.00,0.0254
3001.00,0.0253
3000.00,0.0253
2999.00,0.0252
2998.00,0.0252
2997.00,0.0252
2996.00,0.0252
2995.00,0.0252
2994.00,0.0252
2993.00,0.0252
2992.00,0.0251
2991.00,0.0251
2990.00,0.0250
2989.00,0.0250
2988.00,0.0250
2987.00,0.0250
2986.00,0.0249
2985.00,0.0249
2984.00,0.0249
2983.00,0.0249
2982.00,0.0248
2981.00,0.0247
2980.00,0.0247
2979.00,0.0247
2978.00,0.0247
2977.00,0.0247
2976.00,0.0247
2975.00,0.0247
2974.00,0.0247
2973.00,0.0246
2972.00,0.0245
2971.00,0.0245
2970.00,0.0244
2969.00,0.0243
2968.00,0.0243
2967.00,0.0242
2966.00,0.0242
2965.00,0.0242
2964.00,0.0241
2963.00,0.0241
2962.00,0.0240
2961.00,0.0240
2960.00,0.0239
2959.00,0.0239
2958.00,0.0239
2957.00,0.0238
2956.00,0.0238
2955.00,0.0238
2954.00,0.0239
2953.00,0.0239
2952.00,0.0239
2951.00,0.0239
2950.00,0.0239
2949.00,0.0238
2948.00,0.0238
2947.00,0.0238
2946.00,0.0238
2945.00,0.0238
2944.00,0.0238
2943.00,0.0238
2942.00,0.0237
2941.00,0.0237
2940.00,0.0236
2939.00,0.0235
2938.00,0.0234
2937.00,0.0233
2936.00,0.0232
2935.00,0.0232
2934.00,0.0231
2933.00,0.0231
2932.00,0.0230
2931.00,0.0229
2930.00,0.0227
2929.00,0.0226
2928.00,0.0224
2927.00,0.0223
2926.00,0.0223
2925.00,0.0222
2924.00,0.0222
2923.00,0.0222
2922.00,0.0223
2921.00,0.0223
2920.00,0.0222
2919.00,0.0222
2918.00,0.0221
2917.00,0.0221
2916.00,0.0222
2915.00,0.0223
2914.00,0.0225
2913.00,0.0227
2912.00,0.0228
2911.00,0.0228
2910.00,0.0229
2909.00,0.0229
2908.00,0.0230
2907.00,0.0230
2906.00,0.0231
2905.00,0.0231
2904.00,0.0231
2903.00,0.0231
2902.00,0.0231
2901.00,0.0231
2900.00,0.0231
2899.00,0.0231
2898.00,0.0231
2897.00,0.0231
2896.00,0.0231
2895.00,0.0231
2894.00,0.0231
2893.00,0.0231
2892.00,0.0231
2891.00,0.0231
2890.00,0.0231
2889.00,0.0231
2888.00,0.0231
2887.00,0.0231
2886.00,0.0231
2885.00,0.0232
2884.00,0.0232
2883.00,0.0232
2882.00,0.0232
2881.00,0.0232
2880.00,0.0232
2879.00,0.0231
2878.00,0.0230
2877.00,0.0230
2876.00,0.0230
2875.00,0.0229
2874.00,0.0228
2873.00,0.0228
2872.00,0.0227
2871.00,0.0227
2870.00,0.0227
2869.00,0.0227
2868.00,0.0226
2867.00,0.0226
2866.00,0.0225
2865.00,0.0225
2864.00,0.0225
2863.00,0.0225
2862.00,0.0225
2861.00,0.0224
2860.00,0.0224
2859.00,0.0223
2858.00,0.0222
2857.00,0.0222
2856.00,0.0221
2855.00,0.0220
2854.00,0.0220
2853.00,0.0220
2852.00,0.0220
2851.00,0.0220
2850.00,0.0220
2849.00,0.0220
2848.00,0.0220
2847.00,0.0220
2846.00,0.0221
2845.00,0.0222
2844.00,0.0222
2843.00,0.0223
2842.00,0.0224
2841.00,0.0225
2840.00,0.0226
2839.00,0.0226
2838.00,0.0226
2837.00,0.0226
2836.00,0.0226
2835.00,0.0225
2834.00,0.0225
2833.00,0.0225
2832.00,0.0225
2831.00,0.0225
2830.00,0.0225
2829.00,0.0225
2828.00,0.0225
2827.00,0.0225
2826.00,0.0225
2825.00,0.0225
2824.00,0.0225
2823.00,0.0224
2822.00,0.0224
2821.00,0.0224
2820.00,0.0224
2819.00,0.0224
2818.00,0.0224
2817.00,0.0224
2816.00,0.0224
2815.00,0.0224
2814.00,0.0224
2813.00,0.0223
2812.00,0.0223
2811.00,0.0223
2810.00,0.0223
2809.00,0.0223
2808.00,0.0223
2807.00,0.0222
2806.00,0.0222
2805.00,0.0222
2804.00,0.0222
2803.00,0.0222
2802.00,0.0222
2801.00,0.0222
2800.00,0.0222
2799.00,0.0222
2798.00,0.0221
2797.00,0.0221
2796.00,0.0221
2795.00,0.0220
2794.00,0.0220
2793.00,0.0220
2792.00,0.0220
2791.00,0.0220
2790.00,0.0220
2789.00,0.0220
2788.00,0.0220
2787.00,0.0220
2786.00,0.0220
2785.00,0.0220
2784.00,0.0220
2783.00,0.0220
2782.00,0.0219
2781.00,0.0219
2780.00,0.0219
2779.00,0.0218
2778.00,0.0218
2777.00,0.0218
2776.00,0.0218
2775.00,0.0218
2774.00,0.0218
2773.00,0.0218
2772.00,0.0218
2771.00,0.0217
2770.00,0.0217
2769.00,0.0217
2768.00,0.0217
2767.00,0.0217
2766.00,0.0216
2765.00,0.0216
2764.00,0.0217
2763.00,0.0217
2762.00,0.0217
2761.00,0.0216
2760.00,0.0216
2759.00,0.0216
2758.00,0.0216
2757.00,0.0216
2756.00,0.0216
2755.00,0.0216
2754.00,0.0216
2753.00,0.0216
2752.00,0.0216
2751.00,0.0216
2750.00,0.0215
2749.00,0.0216
2748.00,0.0216
2747.00,0.0215
2746.00,0.0215
2745.00,0.0214
2744.00,0.0214
2743.00,0.0214
2742.00,0.0214
2741.00,0.0214
2740.00,0.0214
2739.00,0.0214
2738.00,0.0214
2737.00,0.0213
2736.00,0.0213
2735.00,0.0212
2734.00,0.0212
2733.00,0.0212
2732.00,0.0212
2731.00,0.0212
2730.00,0.0212
2729.00,0.0212
2728.00,0.0212
2727.00,0.0212
2726.00,0.0212
2725.00,0.0212
2724.00,0.0212
2723.00,0.0211
2722.00,0.0211
2721.00,0.0211
2720.00,0.0211
2719.00,0.0210
2718.00,0.0210
2717.00,0.0210
2716.00,0.0210
2715.00,0.0210
2714.00,0.0210
2713.00,0.0210
2712.00,0.0210
2711.00,0.0210
2710.00,0.0210
2709.00,0.0210
2708.00,0.0210
2707.00,0.0209
2706.00,0.0209
2705.00,0.0209
2704.00,0.0209
2703.00,0.0209
2702.00,0.0209
2701.00,0.0209
2700.00,0.0208
2699.00,0.0208
2698.00,0.0208
2697.00,0.0208
2696.00,0.0208
2695.00,0.0208
2694.00,0.0208
2693.00,0.0208
2692.00,0.0208
2691.00,0.0207
2690.00,0.0207
2689.00,0.0207
2688.00,0.0207
2687.00,0.0207
2686.00,0.0207
2685.00,0.0207
2684.00,0.0207
2683.00,0.0206
2682.00,0.0206
2681.00,0.0206
2680.00,0.0206
2679.00,0.0206
2678.00,0.0206
2677.00,0.0206
2676.00,0.0206
2675.00,0.0206
2674.00,0.0206
2673.00,0.0205
2672.00,0.0205
2671.00,0.0205
2670.00,0.0205
2669.00,0.0204
2668.00,0.0204
2667.00,0.0204
2666.00,0.0204
2665.00,0.0204
2664.00,0.0205
2663.00,0.0205
2662.00,0.0205
2661.00,0.0205
2660.00,0.0205
2659.00,0.0205
2658.00,0.0206
2657.00,0.0206
2656.00,0.0205
2655.00,0.0205
2654.00,0.0205
2653.00,0.0205
2652.00,0.0205
2651.00,0.0205
2650.00,0.0205
2649.00,0.0206
2648.00,0.0206
2647.00,0.0206
2646.00,0.0206
2645.00,0.0206
2644.00,0.0206
2643.00,0.0207
2642.00,0.0207
2641.00,0.0207
2640.00,0.0207
2639.00,0.0207
2638.00,0.0206
2637.00,0.0206
2636.00,0.0206
2635.00,0.0206
2634.00,0.0206
2633.00,0.0205
2632.00,0.0205
2631.00,0.0205
2630.00,0.0205
2629.00,0.0205
2628.00,0.0205
2627.00,0.0206
2626.00,0.0205
2625.00,0.0205
2624.00,0.0205
2623.00,0.0205
2622.00,0.0205
2621.00,0.0205
2620.00,0.0205
2619.00,0.0205
2618.00,0.0205
2617.00,0.0206
2616.00,0.0206
2615.00,0.0206
2614.00,0.0206
2613.00,0.0205
2612.00,0.0205
2611.00,0.0205
2610.00,0.0204
2609.00,0.0204
2608.00,0.0204
2607.00,0.0204
2606.00,0.0204
2605.00,0.0204
2604.00,0.0205
2603.00,0.0205
2602.00,0.0205
2601.00,0.0205
2600.00,0.0205
2599.00,0.0205
2598.00,0.0205
2597.00,0.0205
2596.00,0.0204
2595.00,0.0204
2594.00,0.0204
2593.00,0.0204
2592.00,0.0204
2591.00,0.0205
2590.00,0.0205
2589.00,0.0204
2588.00,0.0204
2587.00,0.0204
2586.00,0.0203
2585.00,0.0203
2584.00,0.0204
2583.00,0.0204
2582.00,0.0204
2581.00,0.0204
2580.00,0.0204
2579.00,0.0204
2578.00,0.0204
2577.00,0.0205
2576.00,0.0205
2575.00,0.0204
2574.00,0.0204
2573.00,0.0203
2572.00,0.0203
2571.00,0.0203
2570.00,0.0202
2569.00,0.0202
2568.00,0.0202
2567.00,0.0202
2566.00,0.0203
2565.00,0.0203
2564.00,0.0203
2563.00,0.0203
2562.00,0.0203
2561.00,0.0203
2560.00,0.0203
2559.00,0.0203
2558.00,0.0203
2557.00,0.0203
2556.00,0.0203
2555.00,0.0204
2554.00,0.0204
2553.00,0.0204
2552.00,0.0204
2551.00,0.0204
2550.00,0.0204
2549.00,0.0204
2548.00,0.0203
2547.00,0.0202
2546.00,0.0202
2545.00,0.0201
2544.00,0.0201
2543.00,0.0201
2542.00,0.0202
2541.00,0.0203
2540.00,0.0203
2539.00,0.0203
2538.00,0.0203
2537.00,0.0202
2536.00,0.0202
2535.00,0.0202
2534.00,0.0202
2533.00,0.0201
2532.00,0.0201
2531.00,0.0201
2530.00,0.0201
2529.00,0.0202
2528.00,0.0202
2527.00,0.0202
2526.00,0.0202
2525.00,0.0202
2524.00,0.0202
2523.00,0.0201
2522.00,0.0201
2521.00,0.0201
2520.00,0.0202
2519.00,0.0201
2518.00,0.0201
2517.00,0.0200
2516.00,0.0200
2515.00,0.0200
2514.00,0.0200
2513.00,0.0200
2512.00,0.0201
2511.00,0.0201
2510.00,0.0201
2509.00,0.0200
2508.00,0.0200
2507.00,0.0199
2506.00,0.0199
2505.00,0.0199
2504.00,0.0199
2503.00,0.0199
2502.00,0.0199
2501.00,0.0200
2500.00,0.0199
2499.00,0.0199
2498.00,0.0199
2497.00,0.0199
2496.00,0.0199
2495.00,0.0199
2494.00,0.0199
2493.00,0.0199
2492.00,0.0199
2491.00,0.0199
2490.00,0.0199
2489.00,0.0199
2488.00,0.0198
2487.00,0.0198
2486.00,0.0198
2485.00,0.0198
2484.00,0.0198
2483.00,0.0198
2482.00,0.0199
2481.00,0.0199
2480.00,0.0199
2479.00,0.0199
2478.00,0.0199
2477.00,0.0198
2476.00,0.0198
2475.00,0.0197
2474.00,0.0197
2473.00,0.0197
2472.00,0.0197
2471.00,0.0197
2470.00,0.0197
2469.00,0.0198
2468.00,0.0197
2467.00,0.0197
2466.00,0.0197
2465.00,0.0197
2464.00,0.0197
2463.00,0.0196
2462.00,0.0196
2461.00,0.0197
2460.00,0.0197
2459.00,0.0198
2458.00,0.0198
2457.00,0.0198
2456.00,0.0198
2455.00,0.0197
2454.00,0.0196
2453.00,0.0196
2452.00,0.0196
2451.00,0.0196
2450.00,0.0196
2449.00,0.0196
2448.00,0.0196
2447.00,0.0196
2446.00,0.0196
2445.00,0.0195
2444.00,0.0195
2443.00,0.0195
2442.00,0.0195
2441.00,0.0195
2440.00,0.0195
2439.00,0.0194
2438.00,0.0194
2437.00,0.0194
2436.00,0.0194
2435.00,0.0194
2434.00,0.0194
2433.00,0.0193
2432.00,0.0193
2431.00,0.0193
2430.00,0.0193
2429.00,0.0193
2428.00,0.0194
2427.00,0.0194
2426.00,0.0194
2425.00,0.0194
2424.00,0.0194
2423.00,0.0193
2422.00,0.0192
2421.00,0.0192
2420.00,0.0192
2419.00,0.0192
2418.00,0.0192
2417.00,0.0192
2416.00,0.0192
2415.00,0.0192
2414.00,0.0192
2413.00,0.0192
2412.00,0.0192
2411.00,0.0192
2410.00,0.0192
2409.00,0.0191
2408.00,0.0190
2407.00,0.0190
2406.00,0.0190
2405.00,0.0190
2404.00,0.0190
2403.00,0.0190
2402.00,0.0190
2401.00,0.0189
2400.00,0.0189
2399.00,0.0189
2398.00,0.0188
2397.00,0.0189
2396.00,0.0189
2395.00,0.0189
2394.00,0.0189
2393.00,0.0189
2392.00,0.0188
2391.00,0.0188
2390.00,0.0187
2389.00,0.0187
2388.00,0.0186
2387.00,0.0185
2386.00,0.0184
2385.00,0.0183
2384.00,0.0181
2383.00,0.0179
2382.00,0.0178
2381.00,0.0177
2380.00,0.0176
2379.00,0.0176
2378.00,0.0176
2377.00,0.0177
2376.00,0.0178
2375.00,0.0179
2374.00,0.0181
2373.00,0.0182
2372.00,0.0183
2371.00,0.0183
2370.00,0.0182
2369.00,0.0181
2368.00,0.0181
2367.00,0.0181
2366.00,0.0181
2365.00,0.0181
2364.00,0.0181
2363.00,0.0182
2362.00,0.0183
2361.00,0.0186
2360.00,0.0187
2359.00,0.0187
2358.00,0.0187
2357.00,0.0186
2356.00,0.0185
2355.00,0.0185
2354.00,0.0183
2353.00,0.0182
2352.00,0.0183
2351.00,0.0184
2350.00,0.0184
2349.00,0.0182
2348.00,0.0177
2347.00,0.0174
2346.00,0.0173
2345.00,0.0176
2344.00,0.0180
2343.00,0.0183
2342.00,0.0184
2341.00,0.0185
2340.00,0.0185
2339.00,0.0184
2338.00,0.0184
2337.00,0.0184
2336.00,0.0184
2335.00,0.0185
2334.00,0.0185
2333.00,0.0186
2332.00,0.0186
2331.00,0.0186
2330.00,0.0187
2329.00,0.0188
2328.00,0.0189
2327.00,0.0190
2326.00,0.0189
2325.00,0.0189
2324.00,0.0188
2323.00,0.0188
2322.00,0.0188
2321.00,0.0187
2320.00,0.0187
2319.00,0.0186
2318.00,0.0187
2317.00,0.0187
2316.00,0.0186
2315.00,0.0185
2314.00,0.0185
2313.00,0.0185
2312.00,0.0185
2311.00,0.0185
2310.00,0.0184
2309.00,0.0183
2308.00,0.0182
2307.00,0.0183
2306.00,0.0183
2305.00,0.0183
2304.00,0.0183
2303.00,0.0183
2302.00,0.0183
2301.00,0.0183
2300.00,0.0182
2299.00,0.0182
2298.00,0.0182
2297.00,0.0181
2296.00,0.0182
2295.00,0.0182
2294.00,0.0182
2293.00,0.0182
2292.00,0.0183
2291.00,0.0183
2290.00,0.0183
2289.00,0.0184
2288.00,0.0184
2287.00,0.0184
2286.00,0.0184
2285.00,0.0184
2284.00,0.0183
2283.00,0.0183
2282.00,0.0183
2281.00,0.0183
2280.00,0.0183
2279.00,0.0183
2278.00,0.0182
2277.00,0.0182
2276.00,0.0182
2275.00,0.0182
2274.00,0.0182
2273.00,0.0183
2272.00,0.0183
2271.00,0.0183
2270.00,0.0182
2269.00,0.0182
2268.00,0.0182
2267.00,0.0182
2266.00,0.0181
2265.00,0.0181
2264.00,0.0181
2263.00,0.0180
2262.00,0.0180
2261.00,0.0180
2260.00,0.0181
2259.00,0.0182
2258.00,0.0182
2257.00,0.0183
2256.00,0.0183
2255.00,0.0182
2254.00,0.0182
2253.00,0.0181
2252.00,0.0180
2251.00,0.0180
2250.00,0.0179
2249.00,0.0179
2248.00,0.0179
2247.00,0.0179
2246.00,0.0180
2245.00,0.0180
2244.00,0.0180
2243.00,0.0180
2242.00,0.0181
2241.00,0.0182
2240.00,0.0182
2239.00,0.0183
2238.00,0.0182
2237.00,0.0183
2236.00,0.0183
2235.00,0.0184
2234.00,0.0184
2233.00,0.0185
2232.00,0.0185
2231.00,0.0185
2230.00,0.0185
2229.00,0.0186
2228.00,0.0186
2227.00,0.0187
2226.00,0.0187
2225.00,0.0187
2224.00,0.0187
2223.00,0.0186
2222.00,0.0186
2221.00,0.0186
2220.00,0.0186
2219.00,0.0185
2218.00,0.0185
2217.00,0.0185
2216.00,0.0186
2215.00,0.0186
2214.00,0.0186
2213.00,0.0186
2212.00,0.0185
2211.00,0.0183
2210.00,0.0182
2209.00,0.0182
2208.00,0.0182
2207.00,0.0183
2206.00,0.0183
2205.00,0.0184
2204.00,0.0183
2203.00,0.0183
2202.00,0.0183
2201.00,0.0183
2200.00,0.0183
2199.00,0.0183
2198.00,0.0182
2197.00,0.0182
2196.00,0.0183
2195.00,0.0183
2194.00,0.0183
2193.00,0.0182
2192.00,0.0181
2191.00,0.0180
2190.00,0.0180
2189.00,0.0181
2188.00,0.0181
2187.00,0.0181
2186.00,0.0180
2185.00,0.0178
2184.00,0.0178
2183.00,0.0178
2182.00,0.0180
2181.00,0.0180
2180.00,0.0180
2179.00,0.0180
2178.00,0.0179
2177.00,0.0178
2176.00,0.0177
2175.00,0.0177
2174.00,0.0178
2173.00,0.0180
2172.00,0.0181
2171.00,0.0180
2170.00,0.0179
2169.00,0.0178
2168.00,0.0178
2167.00,0.0180
2166.00,0.0181
2165.00,0.0182
2164.00,0.0182
2163.00,0.0183
2162.00,0.0182
2161.00,0.0179
2160.00,0.0174
2159.00,0.0170
2158.00,0.0169
2157.00,0.0169
2156.00,0.0170
2155.00,0.0171
2154.00,0.0171
2153.00,0.0171
2152.00,0.0170
2151.00,0.0170
2150.00,0.0170
2149.00,0.0170
2148.00,0.0169
2147.00,0.0168
2146.00,0.0168
2145.00,0.0167
2144.00,0.0168
2143.00,0.0168
2142.00,0.0169
2141.00,0.0168
2140.00,0.0167
2139.00,0.0166
2138.00,0.0164
2137.00,0.0163
2136.00,0.0162
2135.00,0.0162
2134.00,0.0161
2133.00,0.0162
2132.00,0.0162
2131.00,0.0162
2130.00,0.0162
2129.00,0.0162
2128.00,0.0162
2127.00,0.0161
2126.00,0.0161
2125.00,0.0161
2124.00,0.0161
2123.00,0.0161
2122.00,0.0162
2121.00,0.0163
2120.00,0.0164
2119.00,0.0165
2118.00,0.0166
2117.00,0.0167
2116.00,0.0166
2115.00,0.0165
2114.00,0.0164
2113.00,0.0163
2112.00,0.0162
2111.00,0.0162
2110.00,0.0162
2109.00,0.0162
2108.00,0.0162
2107.00,0.0162
2106.00,0.0162
2105.00,0.0162
2104.00,0.0162
2103.00,0.0162
2102.00,0.0162
2101.00,0.0162
2100.00,0.0162
2099.00,0.0162
2098.00,0.0162
2097.00,0.0162
2096.00,0.0160
2095.00,0.0159
2094.00,0.0159
2093.00,0.0160
2092.00,0.0161
2091.00,0.0161
2090.00,0.0162
2089.00,0.0162
2088.00,0.0162
2087.00,0.0162
2086.00,0.0161
2085.00,0.0161
2084.00,0.0161
2083.00,0.0160
2082.00,0.0160
2081.00,0.0160
2080.00,0.0159
2079.00,0.0159
2078.00,0.0160
2077.00,0.0161
2076.00,0.0161
2075.00,0.0161
2074.00,0.0160
2073.00,0.0159
2072.00,0.0157
2071.00,0.0157
2070.00,0.0158
2069.00,0.0159
2068.00,0.0160
2067.00,0.0160
2066.00,0.0160
2065.00,0.0160
2064.00,0.0160
2063.00,0.0159
2062.00,0.0159
2061.00,0.0159
2060.00,0.0159
2059.00,0.0159
2058.00,0.0159
2057.00,0.0158
2056.00,0.0158
2055.00,0.0158
2054.00,0.0159
2053.00,0.0160
2052.00,0.0161
2051.00,0.0162
2050.00,0.0163
2049.00,0.0163
2048.00,0.0163
2047.00,0.0162
2046.00,0.0161
2045.00,0.0161
2044.00,0.0160
2043.00,0.0159
2042.00,0.0159
2041.00,0.0160
2040.00,0.0161
2039.00,0.0161
2038.00,0.0161
2037.00,0.0161
2036.00,0.0159
2035.00,0.0158
2034.00,0.0158
2033.00,0.0158
2032.00,0.0158
2031.00,0.0159
2030.00,0.0159
2029.00,0.0159
2028.00,0.0158
2027.00,0.0157
2026.00,0.0156
2025.00,0.0156
2024.00,0.0156
2023.00,0.0156
2022.00,0.0156
2021.00,0.0157
2020.00,0.0156
2019.00,0.0155
2018.00,0.0154
2017.00,0.0154
2016.00,0.0155
2015.00,0.0155
2014.00,0.0156
2013.00,0.0155
2012.00,0.0153
2011.00,0.0151
2010.00,0.0149
2009.00,0.0148
2008.00,0.0146
2007.00,0.0146
2006.00,0.0146
2005.00,0.0148
2004.00,0.0149
2003.00,0.0150
2002.00,0.0150
2001.00,0.0151
2000.00,0.0152
1999.00,0.0153
1998.00,0.0153
1997.00,0.0152
1996.00,0.0152
1995.00,0.0152
1994.00,0.0153
1993.00,0.0153
1992.00,0.0152
1991.00,0.0151
1990.00,0.0150
1989.00,0.0150
1988.00,0.0151
1987.00,0.0151
1986.00,0.0152
1985.00,0.0153
1984.00,0.0154
1983.00,0.0155
1982.00,0.0156
1981.00,0.0156
1980.00,0.0155
1979.00,0.0153
1978.00,0.0151
1977.00,0.0151
1976.00,0.0151
1975.00,0.0151
1974.00,0.0150
1973.00,0.0149
1972.00,0.0148
1971.00,0.0148
1970.00,0.0149
1969.00,0.0150
1968.00,0.0149
1967.00,0.0147
1966.00,0.0145
1965.00,0.0144
1964.00,0.0143
1963.00,0.0144
1962.00,0.0144
1961.00,0.0144
1960.00,0.0142
1959.00,0.0141
1958.00,0.0139
1957.00,0.0138
1956.00,0.0137
1955.00,0.0135
1954.00,0.0135
1953.00,0.0136
1952.00,0.0137
1951.00,0.0137
1950.00,0.0137
1949.00,0.0137
1948.00,0.0137
1947.00,0.0137
1946.00,0.0137
1945.00,0.0138
1944.00,0.0137
1943.00,0.0135
1942.00,0.0133
1941.00,0.0132
1940.00,0.0131
1939.00,0.0132
1938.00,0.0132
1937.00,0.0132
1936.00,0.0132
1935.00,0.0131
1934.00,0.0131
1933.00,0.0131
1932.00,0.0131
1931.00,0.0131
1930.00,0.0132
1929.00,0.0131
1928.00,0.0130
1927.00,0.0130
1926.00,0.0131
1925.00,0.0132
1924.00,0.0133
1923.00,0.0132
1922.00,0.0130
1921.00,0.0130
1920.00,0.0130
1919.00,0.0128
1918.00,0.0126
1917.00,0.0125
1916.00,0.0125
1915.00,0.0125
1914.00,0.0125
1913.00,0.0125
1912.00,0.0125
1911.00,0.0126
1910.00,0.0126
1909.00,0.0125
1908.00,0.0124
1907.00,0.0123
1906.00,0.0122
1905.00,0.0122
1904.00,0.0122
1903.00,0.0122
1902.00,0.0122
1901.00,0.0121
1900.00,0.0120
1899.00,0.0118
1898.00,0.0118
1897.00,0.0118
1896.00,0.0118
1895.00,0.0118
1894.00,0.0118
1893.00,0.0118
1892.00,0.0118
1891.00,0.0118
1890.00,0.0117
1889.00,0.0115
1888.00,0.0114
1887.00,0.0114
1886.00,0.0114
1885.00,0.0114
1884.00,0.0114
1883.00,0.0113
1882.00,0.0113
1881.00,0.0113
1880.00,0.0112
1879.00,0.0111
1878.00,0.0111
1877.00,0.0110
1876.00,0.0110
1875.00,0.0109
1874.00,0.0109
1873.00,0.0110
1872.00,0.0112
1871.00,0.0113
1870.00,0.0111
1869.00,0.0108
1868.00,0.0106
1867.00,0.0105
1866.00,0.0106
1865.00,0.0106
1864.00,0.0106
1863.00,0.0105
1862.00,0.0104
1861.00,0.0103
1860.00,0.0103
1859.00,0.0103
1858.00,0.0102
1857.00,0.0103
1856.00,0.0103
1855.00,0.0103
1854.00,0.0102
1853.00,0.0101
1852.00,0.0100
1851.00,0.0099
1850.00,0.0098
1849.00,0.0098
1848.00,0.0099
1847.00,0.0100
1846.00,0.0100
1845.00,0.0098
1844.00,0.0094
1843.00,0.0092
1842.00,0.0092
1841.00,0.0094
1840.00,0.0095
1839.00,0.0095
1838.00,0.0094
1837.00,0.0093
1836.00,0.0092
1835.00,0.0091
1834.00,0.0092
1833.00,0.0094
1832.00,0.0095
1831.00,0.0094
1830.00,0.0091
1829.00,0.0089
1828.00,0.0089
1827.00,0.0090
1826.00,0.0090
1825.00,0.0088
1824.00,0.0086
1823.00,0.0085
1822.00,0.0085
1821.00,0.0085
1820.00,0.0085
1819.00,0.0084
1818.00,0.0083
1817.00,0.0082
1816.00,0.0082
1815.00,0.0082
1814.00,0.0082
1813.00,0.0082
1812.00,0.0082
1811.00,0.0081
1810.00,0.0080
1809.00,0.0079
1808.00,0.0079
1807.00,0.0079
1806.00,0.0080
1805.00,0.0081
1804.00,0.0082
1803.00,0.0083
1802.00,0.0082
1801.00,0.0081
1800.00,0.0080
1799.00,0.0079
1798.00,0.0079
1797.00,0.0080
1796.00,0.0081
1795.00,0.0083
1794.00,0.0083
1793.00,0.0082
1792.00,0.0079
1791.00,0.0078
1790.00,0.0079
1789.00,0.0081
1788.00,0.0083
1787.00,0.0083
1786.00,0.0083
1785.00,0.0083
1784.00,0.0084
1783.00,0.0085
1782.00,0.0087
1781.00,0.0088
1780.00,0.0088
1779.00,0.0089
1778.00,0.0091
1777.00,0.0093
1776.00,0.0096
1775.00,0.0100
1774.00,0.0102
1773.00,0.0101
1772.00,0.0098
1771.00,0.0097
1770.00,0.0099
1769.00,0.0101
1768.00,0.0102
1767.00,0.0102
1766.00,0.0104
1765.00,0.0108
1764.00,0.0111
1763.00,0.0112
1762.00,0.0111
1761.00,0.0110
1760.00,0.0112
1759.00,0.0114
1758.00,0.0116
1757.00,0.0115
1756.00,0.0115
1755.00,0.0116
1754.00,0.0119
1753.00,0.0122
1752.00,0.0123
1751.00,0.0123
1750.00,0.0124
1749.00,0.0126
1748.00,0.0128
1747.00,0.0130
1746.00,0.0132
1745.00,0.0135
1744.00,0.0137
1743.00,0.0139
1742.00,0.0142
1741.00,0.0143
1740.00,0.0143
1739.00,0.0144
1738.00,0.0146
1737.00,0.0152
1736.00,0.0157
1735.00,0.0157
1734.00,0.0156
1733.00,0.0158
1732.00,0.0162
1731.00,0.0168
1730.00,0.0172
1729.00,0.0175
1728.00,0.0177
1727.00,0.0179
1726.00,0.0182
1725.00,0.0185
1724.00,0.0187
1723.00,0.0189
1722.00,0.0192
1721.00,0.0196
1720.00,0.0199
1719.00,0.0200
1718.00,0.0199
1717.00,0.0200
1716.00,0.0203
1715.00,0.0204
1714.00,0.0206
1713.00,0.0208
1712.00,0.0209
1711.00,0.0210
1710.00,0.0211
1709.00,0.0213
1708.00,0.0215
1707.00,0.0217
1706.00,0.0217
1705.00,0.0217
1704.00,0.0219
1703.00,0.0222
1702.00,0.0224
1701.00,0.0222
1700.00,0.0218
1699.00,0.0216
1698.00,0.0219
1697.00,0.0224
1696.00,0.0224
1695.00,0.0221
1694.00,0.0220
1693.00,0.0222
1692.00,0.0225
1691.00,0.0227
1690.00,0.0227
1689.00,0.0228
1688.00,0.0230
1687.00,0.0233
1686.00,0.0235
1685.00,0.0234
1684.00,0.0234
1683.00,0.0235
1682.00,0.0236
1681.00,0.0238
1680.00,0.0239
1679.00,0.0239
1678.00,0.0241
1677.00,0.0242
1676.00,0.0242
1675.00,0.0242
1674.00,0.0243
1673.00,0.0246
1672.00,0.0249
1671.00,0.0251
1670.00,0.0253
1669.00,0.0255
1668.00,0.0256
1667.00,0.0256
1666.00,0.0257
1665.00,0.0259
1664.00,0.0260
1663.00,0.0260
1662.00,0.0262
1661.00,0.0263
1660.00,0.0264
1659.00,0.0264
1658.00,0.0265
1657.00,0.0266
1656.00,0.0270
1655.00,0.0273
1654.00,0.0274
1653.00,0.0276
1652.00,0.0275
1651.00,0.0274
1650.00,0.0276
1649.00,0.0279
1648.00,0.0281
1647.00,0.0282
1646.00,0.0284
1645.00,0.0285
1644.00,0.0285
1643.00,0.0286
1642.00,0.0288
1641.00,0.0289
1640.00,0.0289
1639.00,0.0291
1638.00,0.0293
1637.00,0.0295
1636.00,0.0299
1635.00,0.0302
1634.00,0.0302
1633.00,0.0303
1632.00,0.0304
1631.00,0.0305
1630.00,0.0306
1629.00,0.0308
1628.00,0.0310
1627.00,0.0312
1626.00,0.0315
1625.00,0.0316
1624.00,0.0318
1623.00,0.0320
1622.00,0.0322
1621.00,0.0323
1620.00,0.0323
1619.00,0.0324
1618.00,0.0325
1617.00,0.0326
1616.00,0.0328
1615.00,0.0329
1614.00,0.0331
1613.00,0.0332
1612.00,0.0333
1611.00,0.0334
1610.00,0.0336
1609.00,0.0339
1608.00,0.0340
1607.00,0.0342
1606.00,0.0342
1605.00,0.0343
1604.00,0.0343
1603.00,0.0344
1602.00,0.0346
1601.00,0.0347
1600.00,0.0347
1599.00,0.0348
1598.00,0.0348
1597.00,0.0349
1596.00,0.0350
1595.00,0.0351
1594.00,0.0352
1593.00,0.0352
1592.00,0.0352
1591.00,0.0353
1590.00,0.0354
1589.00,0.0355
1588.00,0.0355
1587.00,0.0355
1586.00,0.0355
1585.00,0.0355
1584.00,0.0355
1583.00,0.0355
1582.00,0.0356
1581.00,0.0356
1580.00,0.0356
1579.00,0.0357
1578.00,0.0358
1577.00,0.0358
1576.00,0.0359
1575.00,0.0359
1574.00,0.0359
1573.00,0.0358
1572.00,0.0358
1571.00,0.0358
1570.00,0.0359
1569.00,0.0360
1568.00,0.0361
1567.00,0.0360
1566.00,0.0360
1565.00,0.0359
1564.00,0.0359
1563.00,0.0358
1562.00,0.0359
1561.00,0.0357
1560.00,0.0354
1559.00,0.0359
1558.00,0.0364
1557.00,0.0361
1556.00,0.0358
1555.00,0.0357
1554.00,0.0355
1553.00,0.0353
1552.00,0.0353
1551.00,0.0353
1550.00,0.0352
1549.00,0.0351
1548.00,0.0349
1547.00,0.0346
1546.00,0.0345
1545.00,0.0344
1544.00,0.0344
1543.00,0.0343
1542.00,0.0341
1541.00,0.0339
1540.00,0.0341
1539.00,0.0342
1538.00,0.0339
1537.00,0.0337
1536.00,0.0336
1535.00,0.0336
1534.00,0.0336
1533.00,0.0337
1532.00,0.0337
1531.00,0.0335
1530.00,0.0333
1529.00,0.0332
1528.00,0.0331
1527.00,0.0331
1526.00,0.0329
1525.00,0.0328
1524.00,0.0327
1523.00,0.0326
1522.00,0.0326
1521.00,0.0326
1520.00,0.0326
1519.00,0.0326
1518.00,0.0326
1517.00,0.0325
1516.00,0.0324
1515.00,0.0322
1514.00,0.0320
1513.00,0.0318
1512.00,0.0317
1511.00,0.0317
1510.00,0.0318
1509.00,0.0319
1508.00,0.0320
1507.00,0.0322
1506.00,0.0320
1505.00,0.0315
1504.00,0.0311
1503.00,0.0310
1502.00,0.0309
1501.00,0.0308
1500.00,0.0307
1499.00,0.0305
1498.00,0.0304
1497.00,0.0304
1496.00,0.0305
1495.00,0.0306
1494.00,0.0306
1493.00,0.0307
1492.00,0.0308
1491.00,0.0308
1490.00,0.0310
1489.00,0.0312
1488.00,0.0313
1487.00,0.0311
1486.00,0.0310
1485.00,0.0308
1484.00,0.0307
1483.00,0.0306
1482.00,0.0305
1481.00,0.0305
1480.00,0.0305
1479.00,0.0305
1478.00,0.0306
1477.00,0.0307
1476.00,0.0307
1475.00,0.0307
1474.00,0.0306
1473.00,0.0305
1472.00,0.0306
1471.00,0.0306
1470.00,0.0305
1469.00,0.0305
1468.00,0.0305
1467.00,0.0305
1466.00,0.0305
1465.00,0.0305
1464.00,0.0305
1463.00,0.0305
1462.00,0.0305
1461.00,0.0305
1460.00,0.0305
1459.00,0.0305
1458.00,0.0304
1457.00,0.0305
1456.00,0.0306
1455.00,0.0306
1454.00,0.0307
1453.00,0.0307
1452.00,0.0308
1451.00,0.0309
1450.00,0.0310
1449.00,0.0311
1448.00,0.0313
1447.00,0.0314
1446.00,0.0314
1445.00,0.0313
1444.00,0.0313
1443.00,0.0313
1442.00,0.0312
1441.00,0.0312
1440.00,0.0312
1439.00,0.0312
1438.00,0.0313
1437.00,0.0314
1436.00,0.0315
1435.00,0.0316
1434.00,0.0316
1433.00,0.0316
1432.00,0.0316
1431.00,0.0317
1430.00,0.0317
1429.00,0.0317
1428.00,0.0317
1427.00,0.0317
1426.00,0.0317
1425.00,0.0317
1424.00,0.0318
1423.00,0.0319
1422.00,0.0319
1421.00,0.0318
1420.00,0.0319
1419.00,0.0320
1418.00,0.0322
1417.00,0.0322
1416.00,0.0322
1415.00,0.0322
1414.00,0.0321
1413.00,0.0320
1412.00,0.0321
1411.00,0.0321
1410.00,0.0321
1409.00,0.0321
1408.00,0.0320
1407.00,0.0321
1406.00,0.0321
1405.00,0.0321
1404.00,0.0322
1403.00,0.0323
1402.00,0.0323
1401.00,0.0323
1400.00,0.0324
1399.00,0.0325
1398.00,0.0326
1397.00,0.0327
1396.00,0.0328
1395.00,0.0330
1394.00,0.0330
1393.00,0.0329
1392.00,0.0328
1391.00,0.0327
1390.00,0.0327
1389.00,0.0327
1388.00,0.0328
1387.00,0.0330
1386.00,0.0331
1385.00,0.0331
1384.00,0.0331
1383.00,0.0331
1382.00,0.0331
1381.00,0.0331
1380.00,0.0331
1379.00,0.0331
1378.00,0.0331
1377.00,0.0332
1376.00,0.0333
1375.00,0.0335
1374.00,0.0336
1373.00,0.0337
1372.00,0.0336
1371.00,0.0336
1370.00,0.0336
1369.00,0.0337
1368.00,0.0337
1367.00,0.0337
1366.00,0.0336
1365.00,0.0336
1364.00,0.0338
1363.00,0.0339
1362.00,0.0340
1361.00,0.0340
1360.00,0.0340
1359.00,0.0339
1358.00,0.0339
1357.00,0.0338
1356.00,0.0338
1355.00,0.0337
1354.00,0.0337
1353.00,0.0338
1352.00,0.0337
1351.00,0.0337
1350.00,0.0337
1349.00,0.0337
1348.00,0.0337
1347.00,0.0337
1346.00,0.0337
1345.00,0.0337
1344.00,0.0337
1343.00,0.0336
1342.00,0.0336
1341.00,0.0338
1340.00,0.0339
1339.00,0.0341
1338.00,0.0341
1337.00,0.0341
1336.00,0.0340
1335.00,0.0338
1334.00,0.0338
1333.00,0.0337
1332.00,0.0337
1331.00,0.0337
1330.00,0.0337
1329.00,0.0337
1328.00,0.0337
1327.00,0.0336
1326.00,0.0336
1325.00,0.0336
1324.00,0.0336
1323.00,0.0336
1322.00,0.0336
1321.00,0.0336
1320.00,0.0336
1319.00,0.0336
1318.00,0.0336
1317.00,0.0337
1316.00,0.0337
1315.00,0.0338
1314.00,0.0338
1313.00,0.0338
1312.00,0.0338
1311.00,0.0338
1310.00,0.0337
1309.00,0.0337
1308.00,0.0338
1307.00,0.0338
1306.00,0.0338
1305.00,0.0338
1304.00,0.0338
1303.00,0.0339
1302.00,0.0339
1301.00,0.0339
1300.00,0.0339
1299.00,0.0339
1298.00,0.0339
1297.00,0.0339
1296.00,0.0339
1295.00,0.0339
1294.00,0.0340
1293.00,0.0340
1292.00,0.0340
1291.00,0.0341
1290.00,0.0341
1289.00,0.0342
1288.00,0.0343
1287.00,0.0344
1286.00,0.0344
1285.00,0.0344
1284.00,0.0344
1283.00,0.0344
1282.00,0.0344
1281.00,0.0344
1280.00,0.0345
1279.00,0.0345
1278.00,0.0346
1277.00,0.0346
1276.00,0.0347
1275.00,0.0348
1274.00,0.0348
1273.00,0.0348
1272.00,0.0349
1271.00,0.0349
1270.00,0.0350
1269.00,0.0350
1268.00,0.0350
1267.00,0.0351
1266.00,0.0351
1265.00,0.0350
1264.00,0.0350
1263.00,0.0350
1262.00,0.0350
1261.00,0.0351
1260.00,0.0352
1259.00,0.0352
1258.00,0.0353
1257.00,0.0354
1256.00,0.0356
1255.00,0.0357
1254.00,0.0359
1253.00,0.0360
1252.00,0.0361
1251.00,0.0362
1250.00,0.0363
1249.00,0.0363
1248.00,0.0364
1247.00,0.0365
1246.00,0.0365
1245.00,0.0366
1244.00,0.0367
1243.00,0.0368
1242.00,0.0369
1241.00,0.0369
1240.00,0.0369
1239.00,0.0370
1238.00,0.0370
1237.00,0.0371
1236.00,0.0371
1235.00,0.0372
1234.00,0.0372
1233.00,0.0372
1232.00,0.0373
1231.00,0.0373
1230.00,0.0374
1229.00,0.0374
1228.00,0.0375
1227.00,0.0376
1226.00,0.0376
1225.00,0.0377
1224.00,0.0378
1223.00,0.0378
1222.00,0.0378
1221.00,0.0378
1220.00,0.0378
1219.00,0.0378
1218.00,0.0378
1217.00,0.0378
1216.00,0.0379
1215.00,0.0379
1214.00,0.0379
1213.00,0.0379
1212.00,0.0380
1211.00,0.0380
1210.00,0.0380
1209.00,0.0380
1208.00,0.0380
1207.00,0.0380
1206.00,0.0380
1205.00,0.0381
1204.00,0.0380
1203.00,0.0380
1202.00,0.0380
1201.00,0.0380
1200.00,0.0380
1199.00,0.0380
1198.00,0.0380
1197.00,0.0380
1196.00,0.0381
1195.00,0.0381
1194.00,0.0381
1193.00,0.0381
1192.00,0.0380
1191.00,0.0380
1190.00,0.0381
1189.00,0.0382
1188.00,0.0383
1187.00,0.0383
1186.00,0.0384
1185.00,0.0384
1184.00,0.0384
1183.00,0.0383
1182.00,0.0382
1181.00,0.0381
1180.00,0.0381
1179.00,0.0382
1178.00,0.0382
1177.00,0.0383
1176.00,0.0383
1175.00,0.0383
1174.00,0.0382
1173.00,0.0382
1172.00,0.0381
1171.00,0.0381
1170.00,0.0381
1169.00,0.0382
1168.00,0.0383
1167.00,0.0384
1166.00,0.0384
1165.00,0.0384
1164.00,0.0383
1163.00,0.0383
1162.00,0.0383
1161.00,0.0384
1160.00,0.0384
1159.00,0.0385
1158.00,0.0385
1157.00,0.0384
1156.00,0.0383
1155.00,0.0383
1154.00,0.0383
1153.00,0.0383
1152.00,0.0383
1151.00,0.0383
1150.00,0.0384
1149.00,0.0384
1148.00,0.0384
1147.00,0.0385
1146.00,0.0385
1145.00,0.0386
1144.00,0.0386
1143.00,0.0385
1142.00,0.0385
1141.00,0.0384
1140.00,0.0384
1139.00,0.0384
1138.00,0.0384
1137.00,0.0385
1136.00,0.0385
1135.00,0.0386
1134.00,0.0388
1133.00,0.0389
1132.00,0.0389
1131.00,0.0389
1130.00,0.0389
1129.00,0.0388
1128.00,0.0389
1127.00,0.0389
1126.00,0.0390
1125.00,0.0391
1124.00,0.0392
1123.00,0.0392
1122.00,0.0392
1121.00,0.0392
1120.00,0.0393
1119.00,0.0395
1118.00,0.0396
1117.00,0.0397
1116.00,0.0398
1115.00,0.0398
1114.00,0.0398
1113.00,0.0398
1112.00,0.0398
1111.00,0.0398
1110.00,0.0399
1109.00,0.0399
1108.00,0.0401
1107.00,0.0402
1106.00,0.0403
1105.00,0.0404
1104.00,0.0405
1103.00,0.0406
1102.00,0.0407
1101.00,0.0407
1100.00,0.0407
1099.00,0.0408
1098.00,0.0409
1097.00,0.0409
1096.00,0.0409
1095.00,0.0409
1094.00,0.0410
1093.00,0.0411
1092.00,0.0413
1091.00,0.0414
1090.00,0.0415
1089.00,0.0416
1088.00,0.0417
1087.00,0.0417
1086.00,0.0417
1085.00,0.0416
1084.00,0.0417
1083.00,0.0417
1082.00,0.0418
1081.00,0.0419
1080.00,0.0419
1079.00,0.0419
1078.00,0.0419
1077.00,0.0419
1076.00,0.0420
1075.00,0.0421
1074.00,0.0422
1073.00,0.0423
1072.00,0.0424
1071.00,0.0425
1070.00,0.0426
1069.00,0.0426
1068.00,0.0426
1067.00,0.0426
1066.00,0.0426
1065.00,0.0425
1064.00,0.0425
1063.00,0.0424
1062.00,0.0424
1061.00,0.0424
1060.00,0.0424
1059.00,0.0424
1058.00,0.0424
1057.00,0.0424
1056.00,0.0424
1055.00,0.0424
1054.00,0.0425
1053.00,0.0426
1052.00,0.0427
1051.00,0.0429
1050.00,0.0430
1049.00,0.0430
1048.00,0.0431
1047.00,0.0431
1046.00,0.0431
1045.00,0.0430
1044.00,0.0429
1043.00,0.0428
1042.00,0.0428
1041.00,0.0428
1040.00,0.0427
1039.00,0.0426
1038.00,0.0425
1037.00,0.0425
1036.00,0.0425
1035.00,0.0425
1034.00,0.0426
1033.00,0.0426
1032.00,0.0426
1031.00,0.0426
1030.00,0.0424
1029.00,0.0422
1028.00,0.0421
1027.00,0.0420
1026.00,0.0418
1025.00,0.0417
1024.00,0.0417
1023.00,0.0416
1022.00,0.0416
1021.00,0.0415
1020.00,0.0415
1019.00,0.0414
1018.00,0.0413
1017.00,0.0412
1016.00,0.0411
1015.00,0.0411
1014.00,0.0411
1013.00,0.0411
1012.00,0.0411
1011.00,0.0411
1010.00,0.0411
1009.00,0.0411
1008.00,0.0410
1007.00,0.0411
1006.00,0.0410
1005.00,0.0410
1004.00,0.0409
1003.00,0.0408
1002.00,0.0407
1001.00,0.0406
1000.00,0.0405
999.00,0.0403
998.00,0.0402
997.00,0.0400
996.00,0.0397
995.00,0.0394
994.00,0.0393
993.00,0.0392
992.00,0.0392
991.00,0.0391
990.00,0.0389
989.00,0.0388
988.00,0.0386
987.00,0.0385
986.00,0.0384
985.00,0.0384
984.00,0.0383
983.00,0.0383
982.00,0.0382
981.00,0.0381
980.00,0.0380
979.00,0.0379
978.00,0.0379
977.00,0.0378
976.00,0.0378
975.00,0.0377
974.00,0.0377
973.00,0.0376
972.00,0.0375
971.00,0.0374
970.00,0.0374
969.00,0.0374
968.00,0.0374
967.00,0.0374
966.00,0.0373
965.00,0.0372
964.00,0.0371
963.00,0.0370
962.00,0.0369
961.00,0.0368
960.00,0.0368
959.00,0.0369
958.00,0.0369
957.00,0.0368
956.00,0.0367
955.00,0.0367
954.00,0.0367
953.00,0.0367
952.00,0.0367
951.00,0.0366
950.00,0.0366
949.00,0.0366
948.00,0.0366
947.00,0.0367
946.00,0.0367
945.00,0.0367
944.00,0.0367
943.00,0.0367
942.00,0.0367
941.00,0.0367
940.00,0.0368
939.00,0.0368
938.00,0.0368
937.00,0.0368
936.00,0.0368
935.00,0.0368
934.00,0.0367
933.00,0.0366
932.00,0.0366
931.00,0.0365
930.00,0.0365
929.00,0.0365
928.00,0.0366
927.00,0.0368
926.00,0.0369
925.00,0.0370
924.00,0.0371
923.00,0.0371
922.00,0.0371
921.00,0.0370
920.00,0.0369
919.00,0.0369
918.00,0.0370
917.00,0.0372
916.00,0.0373
915.00,0.0374
914.00,0.0374
913.00,0.0373
912.00,0.0373
911.00,0.0373
910.00,0.0373
909.00,0.0373
908.00,0.0372
907.00,0.0371
906.00,0.0370
905.00,0.0369
904.00,0.0369
903.00,0.0369
902.00,0.0369
901.00,0.0368
900.00,0.0368
899.00,0.0368
898.00,0.0367
897.00,0.0366
896.00,0.0365
895.00,0.0365
894.00,0.0366
893.00,0.0366
892.00,0.0366
891.00,0.0367
890.00,0.0367
889.00,0.0368
888.00,0.0369
887.00,0.0369
886.00,0.0369
885.00,0.0369
884.00,0.0368
883.00,0.0367
882.00,0.0367
881.00,0.0368
880.00,0.0369
879.00,0.0369
878.00,0.0368
877.00,0.0367
876.00,0.0367
875.00,0.0366
874.00,0.0366
873.00,0.0366
872.00,0.0365
871.00,0.0363
870.00,0.0362
869.00,0.0362
868.00,0.0363
867.00,0.0364
866.00,0.0364
865.00,0.0363
864.00,0.0363
863.00,0.0362
862.00,0.0363
861.00,0.0363
860.00,0.0364
859.00,0.0365
858.00,0.0365
857.00,0.0365
856.00,0.0365
855.00,0.0365
854.00,0.0365
853.00,0.0365
852.00,0.0365
851.00,0.0365
850.00,0.0365
849.00,0.0365
848.00,0.0366
847.00,0.0367
846.00,0.0368
845.00,0.0371
844.00,0.0373
843.00,0.0374
842.00,0.0373
841.00,0.0373
840.00,0.0372
839.00,0.0373
838.00,0.0376
837.00,0.0378
836.00,0.0380
835.00,0.0380
834.00,0.0379
833.00,0.0378
832.00,0.0378
831.00,0.0381
830.00,0.0384
829.00,0.0386
828.00,0.0387
827.00,0.0386
826.00,0.0384
825.00,0.0383
824.00,0.0384
823.00,0.0386
822.00,0.0387
821.00,0.0387
820.00,0.0387
819.00,0.0387
818.00,0.0386
817.00,0.0386
816.00,0.0386
815.00,0.0386
814.00,0.0386
813.00,0.0386
812.00,0.0386
811.00,0.0387
810.00,0.0390
809.00,0.0392
808.00,0.0392
807.00,0.0392
806.00,0.0392
805.00,0.0391
804.00,0.0390
803.00,0.0390
802.00,0.0393
801.00,0.0397
800.00,0.0400
799.00,0.0400
798.00,0.0398
797.00,0.0396
796.00,0.0397
795.00,0.0399
794.00,0.0401
793.00,0.0403
792.00,0.0404
791.00,0.0405
790.00,0.0405
789.00,0.0406
788.00,0.0406
787.00,0.0406
786.00,0.0406
785.00,0.0407
784.00,0.0407
783.00,0.0408
782.00,0.0410
781.00,0.0411
780.00,0.0411
779.00,0.0411
778.00,0.0410
777.00,0.0409
776.00,0.0409
775.00,0.0409
774.00,0.0410
773.00,0.0411
772.00,0.0412
771.00,0.0412
770.00,0.0413
769.00,0.0414
768.00,0.0414
767.00,0.0414
766.00,0.0414
765.00,0.0414
764.00,0.0415
763.00,0.0416
762.00,0.0418
761.00,0.0418
760.00,0.0418
759.00,0.0419
758.00,0.0419
757.00,0.0420
756.00,0.0421
755.00,0.0422
754.00,0.0423
753.00,0.0424
752.00,0.0425
751.00,0.0426
750.00,0.0427
749.00,0.0427
748.00,0.0426
747.00,0.0424
746.00,0.0422
745.00,0.0420
744.00,0.0419
743.00,0.0419
742.00,0.0420
741.00,0.0420
740.00,0.0419
739.00,0.0418
738.00,0.0417
737.00,0.0416
736.00,0.0417
735.00,0.0417
734.00,0.0418
733.00,0.0418
732.00,0.0418
731.00,0.0419
730.00,0.0420
729.00,0.0419
728.00,0.0418
727.00,0.0417
726.00,0.0418
725.00,0.0419
724.00,0.0420
723.00,0.0420
722.00,0.0420
721.00,0.0421
720.00,0.0422
719.00,0.0424
718.00,0.0425
717.00,0.0425
716.00,0.0424
715.00,0.0424
714.00,0.0425
713.00,0.0428
712.00,0.0432
711.00,0.0433
710.00,0.0432
709.00,0.0430
708.00,0.0428
707.00,0.0428
706.00,0.0429
705.00,0.0432
704.00,0.0434
703.00,0.0434
702.00,0.0433
701.00,0.0433
700.00,0.0433
699.00,0.0436
698.00,0.0438
697.00,0.0441
696.00,0.0441
695.00,0.0439
694.00,0.0434
693.00,0.0430
692.00,0.0430
691.00,0.0433
690.00,0.0437
689.00,0.0441
688.00,0.0441
687.00,0.0440
686.00,0.0438
685.00,0.0436
684.00,0.0435
683.00,0.0436
682.00,0.0438
681.00,0.0440
680.00,0.0441
679.00,0.0440
678.00,0.0441
677.00,0.0442
676.00,0.0445
675.00,0.0446
674.00,0.0446
673.00,0.0445
672.00,0.0443
671.00,0.0443
670.00,0.0446
669.00,0.0456
668.00,0.0473
667.00,0.0480
666.00,0.0475
665.00,0.0466
664.00,0.0459
663.00,0.0452
662.00,0.0449
661.00,0.0450
660.00,0.0456
659.00,0.0462
658.00,0.0463
657.00,0.0459
656.00,0.0454
655.00,0.0451
654.00,0.0453
653.00,0.0456
652.00,0.0457
651.00,0.0455
650.00,0.0450
