Created as New Dataset,
cm-1,A
4000.00,0.0149
3999.00,0.0149
3998.00,0.0149
3997.00,0.0149
3996.00,0.0150
3995.00,0.0150
3994.00,0.0150
3993.00,0.0150
3992.00,0.0150
3991.00,0.0150
3990.00,0.0149
3989.00,0.0149
3988.00,0.0149
3987.00,0.0150
3986.00,0.0150
3985.00,0.0150
3984.00,0.0150
3983.00,0.0150
3982.00,0.0150
3981.00,0.0150
3980.00,0.0150
3979.00,0.0150
3978.00,0.0151
3977.00,0.0150
3976.00,0.0150
3975.00,0.0150
3974.00,0.0150
3973.00,0.0150
3972.00,0.0150
3971.00,0.0150
3970.00,0.0149
3969.00,0.0149
3968.00,0.0148
3967.00,0.0148
3966.00,0.0148
3965.00,0.0149
3964.00,0.0149
3963.00,0.0150
3962.00,0.0150
3961.00,0.0151
3960.00,0.0151
3959.00,0.0151
3958.00,0.0151
3957.00,0.0151
3956.00,0.0150
3955.00,0.0150
3954.00,0.0150
3953.00,0.0151
3952.00,0.0151
3951.00,0.0152
3950.00,0.0152
3949.00,0.0152
3948.00,0.0153
3947.00,0.0153
3946.00,0.0154
3945.00,0.0155
3944.00,0.0154
3943.00,0.0153
3942.00,0.0152
3941.00,0.0152
3940.00,0.0152
3939.00,0.0151
3938.00,0.0150
3937.00,0.0149
3936.00,0.0150
3935.00,0.0151
3934.00,0.0152
3933.00,0.0153
3932.00,0.0153
3931.00,0.0154
3930.00,0.0154
3929.00,0.0155
3928.00,0.0155
3927.00,0.0155
3926.00,0.0154
3925.00,0.0153
3924.00,0.0153
3923.00,0.0153
3922.00,0.0154
3921.00,0.0154
3920.00,0.0153
3919.00,0.0153
3918.00,0.0153
3917.00,0.0153
3916.00,0.0152
3915.00,0.0152
3914.00,0.0151
3913.00,0.0150
3912.00,0.0149
3911.00,0.0148
3910.00,0.0148
3909.00,0.0149
3908.00,0.0151
3907.00,0.0154
3906.00,0.0155
3905.00,0.0156
3904.00,0.0157
3903.00,0.0160
3902.00,0.0163
3901.00,0.0164
3900.00,0.0163
3899.00,0.0160
3898.00,0.0157
3897.00,0.0156
3896.00,0.0155
3895.00,0.0155
3894.00,0.0155
3893.00,0.0154
3892.00,0.0153
3891.00,0.0152
3890.00,0.0152
3889.00,0.0155
3888.00,0.0157
3887.00,0.0157
3886.00,0.0154
3885.00,0.0154
3884.00,0.0157
3883.00,0.0162
3882.00,0.0163
3881.00,0.0160
3880.00,0.0156
3879.00,0.0154
3878.00,0.0156
3877.00,0.0157
3876.00,0.0157
3875.00,0.0155
3874.00,0.0154
3873.00,0.0156
3872.00,0.0159
3871.00,0.0160
3870.00,0.0157
3869.00,0.0156
3868.00,0.0158
3867.00,0.0161
3866.00,0.0161
3865.00,0.0157
3864.00,0.0155
3863.00,0.0156
3862.00,0.0156
3861.00,0.0155
3860.00,0.0154
3859.00,0.0152
3858.00,0.0152
3857.00,0.0155
3856.00,0.0157
3855.00,0.0157
3854.00,0.0156
3853.00,0.0156
3852.00,0.0158
3851.00,0.0159
3850.00,0.0158
3849.00,0.0155
3848.00,0.0152
3847.00,0.0150
3846.00,0.0150
3845.00,0.0150
3844.00,0.0150
3843.00,0.0151
3842.00,0.0154
3841.00,0.0157
3840.00,0.0159
3839.00,0.0159
3838.00,0.0158
3837.00,0.0158
3836.00,0.0158
3835.00,0.0158
3834.00,0.0157
3833.00,0.0155
3832.00,0.0153
3831.00,0.0151
3830.00,0.0151
3829.00,0.0152
3828.00,0.0152
3827.00,0.0150
3826.00,0.0149
3825.00,0.0151
3824.00,0.0155
3823.00,0.0157
3822.00,0.0154
3821.00,0.0152
3820.00,0.0153
3819.00,0.0157
3818.00,0.0159
3817.00,0.0156
3816.00,0.0151
3815.00,0.0148
3814.00,0.0149
3813.00,0.0149
3812.00,0.0147
3811.00,0.0145
3810.00,0.0145
3809.00,0.0146
3808.00,0.0145
3807.00,0.0144
3806.00,0.0145
3805.00,0.0149
3804.00,0.0154
3803.00,0.0154
3802.00,0.0151
3801.00,0.0150
3800.00,0.0152
3799.00,0.0155
3798.00,0.0155
3797.00,0.0151
3796.00,0.0147
3795.00,0.0145
3794.00,0.0145
3793.00,0.0145
3792.00,0.0144
3791.00,0.0143
3790.00,0.0142
3789.00,0.0142
3788.00,0.0143
3787.00,0.0143
3786.00,0.0143
3785.00,0.0143
3784.00,0.0143
3783.00,0.0144
3782.00,0.0146
3781.00,0.0146
3780.00,0.0145
3779.00,0.0143
3778.00,0.0143
3777.00,0.0144
3776.00,0.0143
3775.00,0.0142
3774.00,0.0141
3773.00,0.0141
3772.00,0.0142
3771.00,0.0142
3770.00,0.0142
3769.00,0.0144
3768.00,0.0147
3767.00,0.0148
3766.00,0.0147
3765.00,0.0144
3764.00,0.0144
3763.00,0.0146
3762.00,0.0147
3761.00,0.0147
3760.00,0.0146
3759.00,0.0146
3758.00,0.0146
3757.00,0.0146
3756.00,0.0147
3755.00,0.0148
3754.00,0.0148
3753.00,0.0147
3752.00,0.0146
3751.00,0.0148
3750.00,0.0151
3749.00,0.0153
3748.00,0.0155
3747.00,0.0159
3746.00,0.0159
3745.00,0.0154
3744.00,0.0150
3743.00,0.0150
3742.00,0.0151
3741.00,0.0152
3740.00,0.0150
3739.00,0.0150
3738.00,0.0151
3737.00,0.0153
3736.00,0.0155
3735.00,0.0157
3734.00,0.0158
3733.00,0.0157
3732.00,0.0153
3731.00,0.0149
3730.00,0.0148
3729.00,0.0148
3728.00,0.0147
3727.00,0.0146
3726.00,0.0146
3725.00,0.0148
3724.00,0.0150
3723.00,0.0150
3722.00,0.0149
3721.00,0.0148
3720.00,0.0147
3719.00,0.0147
3718.00,0.0145
3717.00,0.0145
3716.00,0.0145
3715.00,0.0148
3714.00,0.0150
3713.00,0.0151
3712.00,0.0153
3711.00,0.0156
3710.00,0.0159
3709.00,0.0160
3708.00,0.0159
3707.00,0.0157
3706.00,0.0157
3705.00,0.0158
3704.00,0.0159
3703.00,0.0161
3702.00,0.0162
3701.00,0.0163
3700.00,0.0164
3699.00,0.0164
3698.00,0.0164
3697.00,0.0163
3696.00,0.0162
3695.00,0.0163
3694.00,0.0164
3693.00,0.0166
3692.00,0.0167
3691.00,0.0167
3690.00,0.0168
3689.00,0.0168
3688.00,0.0167
3687.00,0.0166
3686.00,0.0164
3685.00,0.0162
3684.00,0.0159
3683.00,0.0157
3682.00,0.0155
3681.00,0.0154
3680.00,0.0154
3679.00,0.0156
3678.00,0.0160
3677.00,0.0165
3676.00,0.0167
3675.00,0.0168
3674.00,0.0170
3673.00,0.0173
3672.00,0.0174
3671.00,0.0170
3670.00,0.0167
3669.00,0.0167
3668.00,0.0169
3667.00,0.0169
3666.00,0.0167
3665.00,0.0165
3664.00,0.0163
3663.00,0.0162
3662.00,0.0162
3661.00,0.0163
3660.00,0.0165
3659.00,0.0167
3658.00,0.0170
3657.00,0.0173
3656.00,0.0175
3655.00,0.0178
3654.00,0.0182
3653.00,0.0187
3652.00,0.0188
3651.00,0.0188
3650.00,0.0191
3649.00,0.0199
3648.00,0.0205
3647.00,0.0205
3646.00,0.0202
3645.00,0.0198
3644.00,0.0195
3643.00,0.0192
3642.00,0.0190
3641.00,0.0189
3640.00,0.0189
3639.00,0.0190
3638.00,0.0190
3637.00,0.0192
3636.00,0.0194
3635.00,0.0195
3634.00,0.0195
3633.00,0.0196
3632.00,0.0200
3631.00,0.0205
3630.00,0.0208
3629.00,0.0211
3628.00,0.0215
3627.00,0.0218
3626.00,0.0218
3625.00,0.0216
3624.00,0.0214
3623.00,0.0215
3622.00,0.0217
3621.00,0.0220
3620.00,0.0223
3619.00,0.0226
3618.00,0.0228
3617.00,0.0228
3616.00,0.0227
3615.00,0.0225
3614.00,0.0222
3613.00,0.0220
3612.00,0.0220
3611.00,0.0222
3610.00,0.0224
3609.00,0.0224
3608.00,0.0224
3607.00,0.0225
3606.00,0.0225
3605.00,0.0224
3604.00,0.0223
3603.00,0.0223
3602.00,0.0223
3601.00,0.0223
3600.00,0.0224
3599.00,0.0225
3598.00,0.0226
3597.00,0.0227
3596.00,0.0228
3595.00,0.0229
3594.00,0.0230
3593.00,0.0229
3592.00,0.0229
3591.00,0.0230
3590.00,0.0232
3589.00,0.0234
3588.00,0.0237
3587.00,0.0240
3586.00,0.0242
3585.00,0.0241
3584.00,0.0239
3583.00,0.0237
3582.00,0.0235
3581.00,0.0234
3580.00,0.0234
3579.00,0.0235
3578.00,0.0235
3577.00,0.0235
3576.00,0.0235
3575.00,0.0235
3574.00,0.0235
3573.00,0.0236
3572.00,0.0237
3571.00,0.0238
3570.00,0.0241
3569.00,0.0245
3568.00,0.0249
3567.00,0.0254
3566.00,0.0257
3565.00,0.0258
3564.00,0.0256
3563.00,0.0253
3562.00,0.0250
3561.00,0.0248
3560.00,0.0247
3559.00,0.0247
3558.00,0.0247
3557.00,0.0247
3556.00,0.0247
3555.00,0.0247
3554.00,0.0248
3553.00,0.0249
3552.00,0.0251
3551.00,0.0252
3550.00,0.0253
3549.00,0.0254
3548.00,0.0255
3547.00,0.0257
3546.00,0.0260
3545.00,0.0261
3544.00,0.0262
3543.00,0.0260
3542.00,0.0259
3541.00,0.0257
3540.00,0.0257
3539.00,0.0257
3538.00,0.0258
3537.00,0.0259
3536.00,0.0259
3535.00,0.0259
3534.00,0.0259
3533.00,0.0259
3532.00,0.0259
3531.00,0.0260
3530.00,0.0261
3529.00,0.0263
3528.00,0.0265
3527.00,0.0267
3526.00,0.0268
3525.00,0.0269
3524.00,0.0270
3523.00,0.0270
3522.00,0.0270
3521.00,0.0270
3520.00,0.0269
3519.00,0.0269
3518.00,0.0268
3517.00,0.0269
3516.00,0.0269
3515.00,0.0270
3514.00,0.0270
3513.00,0.0271
3512.00,0.0272
3511.00,0.0273
3510.00,0.0275
3509.00,0.0276
3508.00,0.0276
3507.00,0.0277
3506.00,0.0277
3505.00,0.0278
3504.00,0.0278
3503.00,0.0279
3502.00,0.0280
3501.00,0.0280
3500.00,0.0280
3499.00,0.0280
3498.00,0.0280
3497.00,0.0280
3496.00,0.0280
3495.00,0.0281
3494.00,0.0281
3493.00,0.0282
3492.00,0.0282
3491.00,0.0282
3490.00,0.0282
3489.00,0.0283
3488.00,0.0283
3487.00,0.0284
3486.00,0.0285
3485.00,0.0286
3484.00,0.0287
3483.00,0.0287
3482.00,0.0288
3481.00,0.0289
3480.00,0.0290
3479.00,0.0290
3478.00,0.0291
3477.00,0.0291
3476.00,0.0291
3475.00,0.0291
3474.00,0.0292
3473.00,0.0292
3472.00,0.0293
3471.00,0.0293
3470.00,0.0294
3469.00,0.0294
3468.00,0.0295
3467.00,0.0295
3466.00,0.0296
3465.00,0.0296
3464.00,0.0297
3463.00,0.0298
3462.00,0.0298
3461.00,0.0298
3460.00,0.0299
3459.00,0.0299
3458.00,0.0299
3457.00,0.0299
3456.00,0.0299
3455.00,0.0300
3454.00,0.0301
3453.00,0.0301
3452.00,0.0302
3451.00,0.0302
3450.00,0.0303
3449.00,0.0303
3448.00,0.0304
3447.00,0.0304
3446.00,0.0305
3445.00,0.0306
3444.00,0.0306
3443.00,0.0306
3442.00,0.0306
3441.00,0.0307
3440.00,0.0307
3439.00,0.0307
3438.00,0.0307
3437.00,0.0307
3436.00,0.0307
3435.00,0.0308
3434.00,0.0308
3433.00,0.0309
3432.00,0.0309
3431.00,0.0310
3430.00,0.0310
3429.00,0.0311
3428.00,0.0311
3427.00,0.0311
3426.00,0.0312
3425.00,0.0312
3424.00,0.0313
3423.00,0.0313
3422.00,0.0313
3421.00,0.0314
3420.00,0.0315
3419.00,0.0316
3418.00,0.0316
3417.00,0.0316
3416.00,0.0315
3415.00,0.0315
3414.00,0.0315
3413.00,0.0316
3412.00,0.0317
3411.00,0.0317
3410.00,0.0317
3409.00,0.0317
3408.00,0.0318
3407.00,0.0318
3406.00,0.0319
3405.00,0.0320
3404.00,0.0321
3403.00,0.0321
3402.00,0.0322
3401.00,0.0322
3400.00,0.0322
3399.00,0.0321
3398.00,0.0321
3397.00,0.0322
3396.00,0.0322
3395.00,0.0322
3394.00,0.0323
3393.00,0.0323
3392.00,0.0324
3391.00,0.0324
3390.00,0.0324
3389.00,0.0323
3388.00,0.0323
3387.00,0.0323
3386.00,0.0324
3385.00,0.0325
3384.00,0.0326
3383.00,0.0326
3382.00,0.0325
3381.00,0.0325
3380.00,0.0325
3379.00,0.0326
3378.00,0.0326
3377.00,0.0327
3376.00,0.0327
3375.00,0.0327
3374.00,0.0328
3373.00,0.0328
3372.00,0.0329
3371.00,0.0329
3370.00,0.0329
3369.00,0.0329
3368.00,0.0329
3367.00,0.0330
3366.00,0.0330
3365.00,0.0331
3364.00,0.0332
3363.00,0.0332
3362.00,0.0332
3361.00,0.0332
3360.00,0.0332
3359.00,0.0332
3358.00,0.0332
3357.00,0.0333
3356.00,0.0333
3355.00,0.0333
3354.00,0.0333
3353.00,0.0332
3352.00,0.0332
3351.00,0.0332
3350.00,0.0332
3349.00,0.0332
3348.00,0.0332
3347.00,0.0333
3346.00,0.0333
3345.00,0.0333
3344.00,0.0334
3343.00,0.0334
3342.00,0.0333
3341.00,0.0333
3340.00,0.0333
3339.00,0.0334
3338.00,0.0334
3337.00,0.0335
3336.00,0.0335
3335.00,0.0336
3334.00,0.0336
3333.00,0.0336
3332.00,0.0336
3331.00,0.0336
3330.00,0.0336
3329.00,0.0336
3328.00,0.0336
3327.00,0.0336
3326.00,0.0337
3325.00,0.0337
3324.00,0.0338
3323.00,0.0338
3322.00,0.0338
3321.00,0.0337
3320.00,0.0337
3319.00,0.0336
3318.00,0.0336
3317.00,0.0336
3316.00,0.0337
3315.00,0.0337
3314.00,0.0337
3313.00,0.0337
3312.00,0.0338
3311.00,0.0338
3310.00,0.0339
3309.00,0.0339
3308.00,0.0339
3307.00,0.0339
3306.00,0.0339
3305.00,0.0340
3304.00,0.0340
3303.00,0.0341
3302.00,0.0340
3301.00,0.0340
3300.00,0.0339
3299.00,0.0339
3298.00,0.0339
3297.00,0.0339
3296.00,0.0339
3295.00,0.0340
3294.00,0.0339
3293.00,0.0339
3292.00,0.0339
3291.00,0.0340
3290.00,0.0340
3289.00,0.0340
3288.00,0.0340
3287.00,0.0340
3286.00,0.0341
3285.00,0.0341
3284.00,0.0341
3283.00,0.0341
3282.00,0.0341
3281.00,0.0341
3280.00,0.0341
3279.00,0.0342
3278.00,0.0341
3277.00,0.0341
3276.00,0.0341
3275.00,0.0341
3274.00,0.0342
3273.00,0.0343
3272.00,0.0343
3271.00,0.0343
3270.00,0.0343
3269.00,0.0342
3268.00,0.0342
3267.00,0.0342
3266.00,0.0342
3265.00,0.0342
3264.00,0.0342
3263.00,0.0343
3262.00,0.0343
3261.00,0.0343
3260.00,0.0343
3259.00,0.0344
3258.00,0.0344
3257.00,0.0344
3256.00,0.0344
3255.00,0.0344
3254.00,0.0344
3253.00,0.0343
3252.00,0.0343
3251.00,0.0343
3250.00,0.0343
3249.00,0.0343
3248.00,0.0343
3247.00,0.0344
3246.00,0.0345
3245.00,0.0345
3244.00,0.0345
3243.00,0.0345
3242.00,0.0345
3241.00,0.0345
3240.00,0.0345
3239.00,0.0345
3238.00,0.0345
3237.00,0.0345
3236.00,0.0345
3235.00,0.0345
3234.00,0.0346
3233.00,0.0346
3232.00,0.0346
3231.00,0.0347
3230.00,0.0347
3229.00,0.0346
3228.00,0.0346
3227.00,0.0346
3226.00,0.0346
3225.00,0.0346
3224.00,0.0346
3223.00,0.0346
3222.00,0.0346
3221.00,0.0346
3220.00,0.0346
3219.00,0.0346
3218.00,0.0346
3217.00,0.0345
3216.00,0.0345
3215.00,0.0345
3214.00,0.0346
3213.00,0.0346
3212.00,0.0347
3211.00,0.0347
3210.00,0.0347
3209.00,0.0346
3208.00,0.0346
3207.00,0.0346
3206.00,0.0346
3205.00,0.0346
3204.00,0.0346
3203.00,0.0346
3202.00,0.0346
3201.00,0.0346
3200.00,0.0347
3199.00,0.0346
3198.00,0.0346
3197.00,0.0346
3196.00,0.0346
3195.00,0.0346
3194.00,0.0346
3193.00,0.0346
3192.00,0.0346
3191.00,0.0346
3190.00,0.0346
3189.00,0.0346
3188.00,0.0346
3187.00,0.0346
3186.00,0.0346
3185.00,0.0346
3184.00,0.0346
3183.00,0.0346
3182.00,0.0346
3181.00,0.0345
3180.00,0.0345
3179.00,0.0344
3178.00,0.0344
3177.00,0.0344
3176.00,0.0344
3175.00,0.0344
3174.00,0.0344
3173.00,0.0344
3172.00,0.0344
3171.00,0.0344
3170.00,0.0344
3169.00,0.0344
3168.00,0.0343
3167.00,0.0343
3166.00,0.0343
3165.00,0.0343
3164.00,0.0343
3163.00,0.0343
3162.00,0.0343
3161.00,0.0343
3160.00,0.0343
3159.00,0.0343
3158.00,0.0343
3157.00,0.0342
3156.00,0.0342
3155.00,0.0341
3154.00,0.0341
3153.00,0.0341
3152.00,0.0341
3151.00,0.0341
3150.00,0.0341
3149.00,0.0341
3148.00,0.0341
3147.00,0.0341
3146.00,0.0341
3145.00,0.0341
3144.00,0.0341
3143.00,0.0341
3142.00,0.0341
3141.00,0.0341
3140.00,0.0341
3139.00,0.0341
3138.00,0.0341
3137.00,0.0340
3136.00,0.0340
3135.00,0.0340
3134.00,0.0339
3133.00,0.0339
3132.00,0.0339
3131.00,0.0339
3130.00,0.0339
3129.00,0.0339
3128.00,0.0339
3127.00,0.0339
3126.00,0.0339
3125.00,0.0338
3124.00,0.0338
3123.00,0.0338
3122.00,0.0338
3121.00,0.0338
3120.00,0.0338
3119.00,0.0338
3118.00,0.0338
3117.00,0.0338
3116.00,0.0338
3115.00,0.0338
3114.00,0.0339
3113.00,0.0339
3112.00,0.0338
3111.00,0.0338
3110.00,0.0337
3109.00,0.0337
3108.00,0.0337
3107.00,0.0337
3106.00,0.0337
3105.00,0.0337
3104.00,0.0337
3103.00,0.0337
3102.00,0.0336
3101.00,0.0336
3100.00,0.0336
3099.00,0.0337
3098.00,0.0337
3097.00,0.0337
3096.00,0.0336
3095.00,0.0336
3094.00,0.0336
3093.00,0.0336
3092.00,0.0335
3091.00,0.0335
3090.00,0.0335
3089.00,0.0335
3088.00,0.0335
3087.00,0.0335
3086.00,0.0335
3085.00,0.0335
3084.00,0.0335
3083.00,0.0335
3082.00,0.0335
3081.00,0.0335
3080.00,0.0335
3079.00,0.0335
3078.00,0.0335
3077.00,0.0335
3076.00,0.0335
3075.00,0.0334
3074.00,0.0334
3073.00,0.0334
3072.00,0.0333
3071.00,0.0333
3070.00,0.0333
3069.00,0.0333
3068.00,0.0333
3067.00,0.0333
3066.00,0.0333
3065.00,0.0333
3064.00,0.0334
3063.00,0.0334
3062.00,0.0333
3061.00,0.0333
3060.00,0.0332
3059.00,0.0332
3058.00,0.0332
3057.00,0.0332
3056.00,0.0332
3055.00,0.0332
3054.00,0.0332
3053.00,0.0332
3052.00,0.0331
3051.00,0.0330
3050.00,0.0330
3049.00,0.0329
3048.00,0.0329
3047.00,0.0328
3046.00,0.0328
3045.00,0.0328
3044.00,0.0328
3043.00,0.0328
3042.00,0.0328
3041.00,0.0327
3040.00,0.0327
3039.00,0.0327
3038.00,0.0327
3037.00,0.0327
3036.00,0.0327
3035.00,0.0327
3034.00,0.0327
3033.00,0.0327
3032.00,0.0326
3031.00,0.0326
3030.00,0.0326
3029.00,0.0325
3028.00,0.0325
3027.00,0.0324
3026.00,0.0324
3025.00,0.0323
3024.00,0.0323
3023.00,0.0323
3022.00,0.0323
3021.00,0.0323
3020.00,0.0323
3019.00,0.0322
3018.00,0.0322
3017.00,0.0322
3016.00,0.0321
3015.00,0.0321
3014.00,0.0321
3013.00,0.0321
3012.00,0.0321
3011.00,0.0321
3010.00,0.0321
3009.00,0.0320
3008.00,0.0319
3007.00,0.0318
3006.00,0.0318
3005.00,0.0318
3004.00,0.0317
3003.00,0.0317
3002.00,0.0316
3001.00,0.0316
3000.00,0.0315
2999.00,0.0314
2998.00,0.0314
2997.00,0.0313
2996.00,0.0313
2995.00,0.0313
2994.00,0.0313
2993.00,0.0313
2992.00,0.0312
2991.00,0.0312
2990.00,0.0311
2989.00,0.0311
2988.00,0.0310
2987.00,0.0310
2986.00,0.0310
2985.00,0.0310
2984.00,0.0309
2983.00,0.0308
2982.00,0.0308
2981.00,0.0307
2980.00,0.0307
2979.00,0.0307
2978.00,0.0307
2977.00,0.0307
2976.00,0.0307
2975.00,0.0307
2974.00,0.0306
2973.00,0.0306
2972.00,0.0305
2971.00,0.0305
2970.00,0.0304
2969.00,0.0303
2968.00,0.0303
2967.00,0.0303
2966.00,0.0303
2965.00,0.0303
2964.00,0.0302
2963.00,0.0302
2962.00,0.0302
2961.00,0.0301
2960.00,0.0301
2959.00,0.0300
2958.00,0.0300
2957.00,0.0300
2956.00,0.0300
2955.00,0.0300
2954.00,0.0300
2953.00,0.0301
2952.00,0.0301
2951.00,0.0302
2950.00,0.0301
2949.00,0.0301
2948.00,0.0301
2947.00,0.0301
2946.00,0.0301
2945.00,0.0302
2944.00,0.0302
2943.00,0.0301
2942.00,0.0301
2941.00,0.0300
2940.00,0.0300
2939.00,0.0299
2938.00,0.0298
2937.00,0.0298
2936.00,0.0297
2935.00,0.0296
2934.00,0.0295
2933.00,0.0294
2932.00,0.0294
2931.00,0.0293
2930.00,0.0291
2929.00,0.0290
2928.00,0.0289
2927.00,0.0288
2926.00,0.0287
2925.00,0.0287
2924.00,0.0286
2923.00,0.0286
2922.00,0.0286
2921.00,0.0286
2920.00,0.0285
2919.00,0.0284
2918.00,0.0283
2917.00,0.0283
2916.00,0.0284
2915.00,0.0286
2914.00,0.0288
2913.00,0.0289
2912.00,0.0291
2911.00,0.0291
2910.00,0.0292
2909.00,0.0293
2908.00,0.0293
2907.00,0.0294
2906.00,0.0294
2905.00,0.0293
2904.00,0.0293
2903.00,0.0293
2902.00,0.0294
2901.00,0.0294
2900.00,0.0294
2899.00,0.0294
2898.00,0.0293
2897.00,0.0293
2896.00,0.0293
2895.00,0.0293
2894.00,0.0293
2893.00,0.0293
2892.00,0.0293
2891.00,0.0293
2890.00,0.0293
2889.00,0.0293
2888.00,0.0293
2887.00,0.0293
2886.00,0.0294
2885.00,0.0294
2884.00,0.0294
2883.00,0.0294
2882.00,0.0294
2881.00,0.0294
2880.00,0.0294
2879.00,0.0293
2878.00,0.0293
2877.00,0.0292
2876.00,0.0292
2875.00,0.0291
2874.00,0.0290
2873.00,0.0289
2872.00,0.0289
2871.00,0.0289
2870.00,0.0288
2869.00,0.0288
2868.00,0.0288
2867.00,0.0287
2866.00,0.0287
2865.00,0.0287
2864.00,0.0286
2863.00,0.0286
2862.00,0.0286
2861.00,0.0286
2860.00,0.0286
2859.00,0.0285
2858.00,0.0285
2857.00,0.0284
2856.00,0.0283
2855.00,0.0282
2854.00,0.0282
2853.00,0.0281
2852.00,0.0281
2851.00,0.0281
2850.00,0.0281
2849.00,0.0281
2848.00,0.0281
2847.00,0.0282
2846.00,0.0282
2845.00,0.0283
2844.00,0.0284
2843.00,0.0285
2842.00,0.0286
2841.00,0.0286
2840.00,0.0287
2839.00,0.0287
2838.00,0.0288
2837.00,0.0288
2836.00,0.0288
2835.00,0.0287
2834.00,0.0287
2833.00,0.0287
2832.00,0.0287
2831.00,0.0286
2830.00,0.0286
2829.00,0.0286
2828.00,0.0286
2827.00,0.0286
2826.00,0.0286
2825.00,0.0286
2824.00,0.0285
2823.00,0.0285
2822.00,0.0284
2821.00,0.0284
2820.00,0.0285
2819.00,0.0285
2818.00,0.0285
2817.00,0.0284
2816.00,0.0284
2815.00,0.0283
2814.00,0.0283
2813.00,0.0283
2812.00,0.0283
2811.00,0.0283
2810.00,0.0283
2809.00,0.0282
2808.00,0.0282
2807.00,0.0282
2806.00,0.0282
2805.00,0.0282
2804.00,0.0282
2803.00,0.0282
2802.00,0.0281
2801.00,0.0281
2800.00,0.0281
2799.00,0.0281
2798.00,0.0280
2797.00,0.0280
2796.00,0.0279
2795.00,0.0279
2794.00,0.0279
2793.00,0.0279
2792.00,0.0279
2791.00,0.0279
2790.00,0.0279
2789.00,0.0279
2788.00,0.0279
2787.00,0.0279
2786.00,0.0278
2785.00,0.0278
2784.00,0.0278
2783.00,0.0278
2782.00,0.0278
2781.00,0.0278
2780.00,0.0277
2779.00,0.0277
2778.00,0.0277
2777.00,0.0277
2776.00,0.0277
2775.00,0.0277
2774.00,0.0277
2773.00,0.0277
2772.00,0.0276
2771.00,0.0276
2770.00,0.0275
2769.00,0.0275
2768.00,0.0275
2767.00,0.0274
2766.00,0.0274
2765.00,0.0274
2764.00,0.0274
2763.00,0.0274
2762.00,0.0274
2761.00,0.0274
2760.00,0.0274
2759.00,0.0274
2758.00,0.0273
2757.00,0.0273
2756.00,0.0273
2755.00,0.0273
2754.00,0.0273
2753.00,0.0273
2752.00,0.0272
2751.00,0.0272
2750.00,0.0272
2749.00,0.0273
2748.00,0.0273
2747.00,0.0272
2746.00,0.0272
2745.00,0.0271
2744.00,0.0271
2743.00,0.0270
2742.00,0.0270
2741.00,0.0270
2740.00,0.0270
2739.00,0.0270
2738.00,0.0270
2737.00,0.0269
2736.00,0.0269
2735.00,0.0268
2734.00,0.0268
2733.00,0.0268
2732.00,0.0268
2731.00,0.0268
2730.00,0.0268
2729.00,0.0268
2728.00,0.0268
2727.00,0.0268
2726.00,0.0268
2725.00,0.0268
2724.00,0.0268
2723.00,0.0268
2722.00,0.0268
2721.00,0.0268
2720.00,0.0268
2719.00,0.0267
2718.00,0.0266
2717.00,0.0266
2716.00,0.0266
2715.00,0.0266
2714.00,0.0266
2713.00,0.0266
2712.00,0.0266
2711.00,0.0266
2710.00,0.0266
2709.00,0.0266
2708.00,0.0266
2707.00,0.0265
2706.00,0.0265
2705.00,0.0265
2704.00,0.0265
2703.00,0.0265
2702.00,0.0265
2701.00,0.0264
2700.00,0.0264
2699.00,0.0263
2698.00,0.0263
2697.00,0.0263
2696.00,0.0263
2695.00,0.0263
2694.00,0.0263
2693.00,0.0263
2692.00,0.0263
2691.00,0.0262
2690.00,0.0262
2689.00,0.0262
2688.00,0.0262
2687.00,0.0262
2686.00,0.0262
2685.00,0.0261
2684.00,0.0261
2683.00,0.0261
2682.00,0.0261
2681.00,0.0261
2680.00,0.0261
2679.00,0.0261
2678.00,0.0261
2677.00,0.0261
2676.00,0.0261
2675.00,0.0261
2674.00,0.0260
2673.00,0.0260
2672.00,0.0260
2671.00,0.0260
2670.00,0.0259
2669.00,0.0259
2668.00,0.0259
2667.00,0.0259
2666.00,0.0259
2665.00,0.0259
2664.00,0.0259
2663.00,0.0260
2662.00,0.0260
2661.00,0.0260
2660.00,0.0260
2659.00,0.0260
2658.00,0.0260
2657.00,0.0260
2656.00,0.0259
2655.00,0.0259
2654.00,0.0259
2653.00,0.0259
2652.00,0.0259
2651.00,0.0259
2650.00,0.0259
2649.00,0.0260
2648.00,0.0260
2647.00,0.0260
2646.00,0.0260
2645.00,0.0260
2644.00,0.0261
2643.00,0.0261
2642.00,0.0261
2641.00,0.0261
2640.00,0.0261
2639.00,0.0260
2638.00,0.0260
2637.00,0.0260
2636.00,0.0260
2635.00,0.0260
2634.00,0.0259
2633.00,0.0259
2632.00,0.0259
2631.00,0.0259
2630.00,0.0259
2629.00,0.0259
2628.00,0.0259
2627.00,0.0259
2626.00,0.0259
2625.00,0.0259
2624.00,0.0259
2623.00,0.0259
2622.00,0.0259
2621.00,0.0258
2620.00,0.0258
2619.00,0.0258
2618.00,0.0259
2617.00,0.0259
2616.00,0.0260
2615.00,0.0260
2614.00,0.0260
2613.00,0.0260
2612.00,0.0259
2611.00,0.0259
2610.00,0.0258
2609.00,0.0258
2608.00,0.0259
2607.00,0.0259
2606.00,0.0259
2605.00,0.0259
2604.00,0.0259
2603.00,0.0259
2602.00,0.0259
2601.00,0.0259
2600.00,0.0259
2599.00,0.0258
2598.00,0.0258
2597.00,0.0258
2596.00,0.0258
2595.00,0.0259
2594.00,0.0259
2593.00,0.0259
2592.00,0.0260
2591.00,0.0260
2590.00,0.0260
2589.00,0.0259
2588.00,0.0259
2587.00,0.0258
2586.00,0.0257
2585.00,0.0257
2584.00,0.0258
2583.00,0.0259
2582.00,0.0259
2581.00,0.0259
2580.00,0.0258
2579.00,0.0258
2578.00,0.0258
2577.00,0.0259
2576.00,0.0259
2575.00,0.0259
2574.00,0.0258
2573.00,0.0258
2572.00,0.0257
2571.00,0.0257
2570.00,0.0257
2569.00,0.0256
2568.00,0.0256
2567.00,0.0257
2566.00,0.0257
2565.00,0.0257
2564.00,0.0257
2563.00,0.0257
2562.00,0.0257
2561.00,0.0257
2560.00,0.0257
2559.00,0.0256
2558.00,0.0256
2557.00,0.0256
2556.00,0.0256
2555.00,0.0256
2554.00,0.0256
2553.00,0.0256
2552.00,0.0257
2551.00,0.0257
2550.00,0.0257
2549.00,0.0257
2548.00,0.0256
2547.00,0.0256
2546.00,0.0255
2545.00,0.0255
2544.00,0.0255
2543.00,0.0255
2542.00,0.0256
2541.00,0.0256
2540.00,0.0257
2539.00,0.0256
2538.00,0.0256
2537.00,0.0256
2536.00,0.0256
2535.00,0.0256
2534.00,0.0256
2533.00,0.0256
2532.00,0.0255
2531.00,0.0255
2530.00,0.0255
2529.00,0.0255
2528.00,0.0256
2527.00,0.0256
2526.00,0.0256
2525.00,0.0257
2524.00,0.0256
2523.00,0.0256
2522.00,0.0256
2521.00,0.0256
2520.00,0.0256
2519.00,0.0256
2518.00,0.0255
2517.00,0.0254
2516.00,0.0253
2515.00,0.0253
2514.00,0.0253
2513.00,0.0254
2512.00,0.0254
2511.00,0.0255
2510.00,0.0254
2509.00,0.0254
2508.00,0.0253
2507.00,0.0253
2506.00,0.0252
2505.00,0.0253
2504.00,0.0253
2503.00,0.0253
2502.00,0.0253
2501.00,0.0254
2500.00,0.0254
2499.00,0.0253
2498.00,0.0253
2497.00,0.0253
2496.00,0.0252
2495.00,0.0252
2494.00,0.0252
2493.00,0.0252
2492.00,0.0252
2491.00,0.0252
2490.00,0.0252
2489.00,0.0253
2488.00,0.0252
2487.00,0.0252
2486.00,0.0251
2485.00,0.0251
2484.00,0.0250
2483.00,0.0250
2482.00,0.0251
2481.00,0.0251
2480.00,0.0252
2479.00,0.0252
2478.00,0.0251
2477.00,0.0251
2476.00,0.0251
2475.00,0.0250
2474.00,0.0250
2473.00,0.0250
2472.00,0.0250
2471.00,0.0250
2470.00,0.0250
2469.00,0.0250
2468.00,0.0250
2467.00,0.0249
2466.00,0.0249
2465.00,0.0249
2464.00,0.0249
2463.00,0.0249
2462.00,0.0249
2461.00,0.0249
2460.00,0.0250
2459.00,0.0250
2458.00,0.0250
2457.00,0.0250
2456.00,0.0249
2455.00,0.0249
2454.00,0.0248
2453.00,0.0248
2452.00,0.0249
2451.00,0.0249
2450.00,0.0249
2449.00,0.0249
2448.00,0.0248
2447.00,0.0248
2446.00,0.0247
2445.00,0.0247
2444.00,0.0247
2443.00,0.0247
2442.00,0.0246
2441.00,0.0246
2440.00,0.0245
2439.00,0.0245
2438.00,0.0245
2437.00,0.0245
2436.00,0.0245
2435.00,0.0245
2434.00,0.0245
2433.00,0.0245
2432.00,0.0245
2431.00,0.0245
2430.00,0.0245
2429.00,0.0245
2428.00,0.0246
2427.00,0.0245
2426.00,0.0245
2425.00,0.0244
2424.00,0.0244
2423.00,0.0244
2422.00,0.0243
2421.00,0.0242
2420.00,0.0242
2419.00,0.0242
2418.00,0.0242
2417.00,0.0242
2416.00,0.0242
2415.00,0.0242
2414.00,0.0242
2413.00,0.0242
2412.00,0.0242
2411.00,0.0242
2410.00,0.0242
2409.00,0.0241
2408.00,0.0241
2407.00,0.0240
2406.00,0.0241
2405.00,0.0241
2404.00,0.0241
2403.00,0.0241
2402.00,0.0240
2401.00,0.0240
2400.00,0.0239
2399.00,0.0239
2398.00,0.0239
2397.00,0.0239
2396.00,0.0239
2395.00,0.0239
2394.00,0.0239
2393.00,0.0238
2392.00,0.0238
2391.00,0.0238
2390.00,0.0238
2389.00,0.0238
2388.00,0.0237
2387.00,0.0237
2386.00,0.0237
2385.00,0.0238
2384.00,0.0238
2383.00,0.0238
2382.00,0.0238
2381.00,0.0239
2380.00,0.0239
2379.00,0.0239
2378.00,0.0238
2377.00,0.0237
2376.00,0.0237
2375.00,0.0236
2374.00,0.0235
2373.00,0.0235
2372.00,0.0234
2371.00,0.0233
2370.00,0.0233
2369.00,0.0233
2368.00,0.0233
2367.00,0.0234
2366.00,0.0233
2365.00,0.0232
2364.00,0.0231
2363.00,0.0230
2362.00,0.0230
2361.00,0.0232
2360.00,0.0232
2359.00,0.0232
2358.00,0.0231
2357.00,0.0230
2356.00,0.0231
2355.00,0.0232
2354.00,0.0233
2353.00,0.0234
2352.00,0.0233
2351.00,0.0232
2350.00,0.0228
2349.00,0.0225
2348.00,0.0221
2347.00,0.0220
2346.00,0.0221
2345.00,0.0225
2344.00,0.0230
2343.00,0.0234
2342.00,0.0235
2341.00,0.0234
2340.00,0.0231
2339.00,0.0228
2338.00,0.0227
2337.00,0.0226
2336.00,0.0226
2335.00,0.0225
2334.00,0.0225
2333.00,0.0226
2332.00,0.0226
2331.00,0.0228
2330.00,0.0229
2329.00,0.0229
2328.00,0.0229
2327.00,0.0229
2326.00,0.0229
2325.00,0.0230
2324.00,0.0230
2323.00,0.0231
2322.00,0.0231
2321.00,0.0231
2320.00,0.0230
2319.00,0.0229
2318.00,0.0228
2317.00,0.0228
2316.00,0.0229
2315.00,0.0229
2314.00,0.0229
2313.00,0.0230
2312.00,0.0230
2311.00,0.0230
2310.00,0.0229
2309.00,0.0228
2308.00,0.0227
2307.00,0.0226
2306.00,0.0227
2305.00,0.0227
2304.00,0.0228
2303.00,0.0228
2302.00,0.0228
2301.00,0.0227
2300.00,0.0227
2299.00,0.0227
2298.00,0.0227
2297.00,0.0227
2296.00,0.0227
2295.00,0.0227
2294.00,0.0226
2293.00,0.0226
2292.00,0.0226
2291.00,0.0226
2290.00,0.0226
2289.00,0.0226
2288.00,0.0226
2287.00,0.0227
2286.00,0.0227
2285.00,0.0227
2284.00,0.0227
2283.00,0.0227
2282.00,0.0227
2281.00,0.0228
2280.00,0.0228
2279.00,0.0228
2278.00,0.0228
2277.00,0.0227
2276.00,0.0227
2275.00,0.0227
2274.00,0.0227
2273.00,0.0228
2272.00,0.0228
2271.00,0.0227
2270.00,0.0226
2269.00,0.0225
2268.00,0.0225
2267.00,0.0225
2266.00,0.0225
2265.00,0.0225
2264.00,0.0225
2263.00,0.0225
2262.00,0.0225
2261.00,0.0225
2260.00,0.0225
2259.00,0.0226
2258.00,0.0226
2257.00,0.0227
2256.00,0.0227
2255.00,0.0226
2254.00,0.0226
2253.00,0.0225
2252.00,0.0224
2251.00,0.0224
2250.00,0.0224
2249.00,0.0223
2248.00,0.0223
2247.00,0.0223
2246.00,0.0222
2245.00,0.0222
2244.00,0.0222
2243.00,0.0223
2242.00,0.0223
2241.00,0.0224
2240.00,0.0223
2239.00,0.0223
2238.00,0.0223
2237.00,0.0223
2236.00,0.0224
2235.00,0.0224
2234.00,0.0224
2233.00,0.0225
2232.00,0.0225
2231.00,0.0226
2230.00,0.0227
2229.00,0.0227
2228.00,0.0228
2227.00,0.0229
2226.00,0.0230
2225.00,0.0229
2224.00,0.0229
2223.00,0.0228
2222.00,0.0228
2221.00,0.0228
2220.00,0.0228
2219.00,0.0227
2218.00,0.0227
2217.00,0.0227
2216.00,0.0228
2215.00,0.0229
2214.00,0.0229
2213.00,0.0228
2212.00,0.0227
2211.00,0.0226
2210.00,0.0224
2209.00,0.0223
2208.00,0.0223
2207.00,0.0223
2206.00,0.0223
2205.00,0.0224
2204.00,0.0225
2203.00,0.0226
2202.00,0.0226
2201.00,0.0225
2200.00,0.0224
2199.00,0.0224
2198.00,0.0224
2197.00,0.0225
2196.00,0.0225
2195.00,0.0225
2194.00,0.0224
2193.00,0.0223
2192.00,0.0221
2191.00,0.0221
2190.00,0.0222
2189.00,0.0223
2188.00,0.0224
2187.00,0.0224
2186.00,0.0224
2185.00,0.0223
2184.00,0.0223
2183.00,0.0224
2182.00,0.0224
2181.00,0.0225
2180.00,0.0225
2179.00,0.0224
2178.00,0.0224
2177.00,0.0222
2176.00,0.0221
2175.00,0.0220
2174.00,0.0219
2173.00,0.0220
2172.00,0.0221
2171.00,0.0222
2170.00,0.0221
2169.00,0.0219
2168.00,0.0217
2167.00,0.0217
2166.00,0.0218
2165.00,0.0220
2164.00,0.0222
2163.00,0.0224
2162.00,0.0223
2161.00,0.0221
2160.00,0.0217
2159.00,0.0213
2158.00,0.0211
2157.00,0.0212
2156.00,0.0213
2155.00,0.0215
2154.00,0.0216
2153.00,0.0217
2152.00,0.0216
2151.00,0.0214
2150.00,0.0212
2149.00,0.0210
2148.00,0.0210
2147.00,0.0210
2146.00,0.0211
2145.00,0.0211
2144.00,0.0210
2143.00,0.0210
2142.00,0.0209
2141.00,0.0209
2140.00,0.0208
2139.00,0.0207
2138.00,0.0206
2137.00,0.0206
2136.00,0.0205
2135.00,0.0204
2134.00,0.0203
2133.00,0.0204
2132.00,0.0204
2131.00,0.0204
2130.00,0.0204
2129.00,0.0204
2128.00,0.0204
2127.00,0.0203
2126.00,0.0203
2125.00,0.0203
2124.00,0.0203
2123.00,0.0203
2122.00,0.0203
2121.00,0.0204
2120.00,0.0205
2119.00,0.0206
2118.00,0.0207
2117.00,0.0207
2116.00,0.0207
2115.00,0.0206
2114.00,0.0205
2113.00,0.0204
2112.00,0.0203
2111.00,0.0202
2110.00,0.0202
2109.00,0.0202
2108.00,0.0203
2107.00,0.0203
2106.00,0.0202
2105.00,0.0202
2104.00,0.0201
2103.00,0.0201
2102.00,0.0200
2101.00,0.0200
2100.00,0.0200
2099.00,0.0201
2098.00,0.0202
2097.00,0.0202
2096.00,0.0201
2095.00,0.0199
2094.00,0.0198
2093.00,0.0198
2092.00,0.0199
2091.00,0.0200
2090.00,0.0201
2089.00,0.0202
2088.00,0.0201
2087.00,0.0201
2086.00,0.0200
2085.00,0.0200
2084.00,0.0200
2083.00,0.0199
2082.00,0.0199
2081.00,0.0200
2080.00,0.0200
2079.00,0.0199
2078.00,0.0198
2077.00,0.0198
2076.00,0.0198
2075.00,0.0198
2074.00,0.0198
2073.00,0.0198
2072.00,0.0198
2071.00,0.0198
2070.00,0.0198
2069.00,0.0199
2068.00,0.0199
2067.00,0.0199
2066.00,0.0199
2065.00,0.0199
2064.00,0.0198
2063.00,0.0198
2062.00,0.0198
2061.00,0.0198
2060.00,0.0198
2059.00,0.0198
2058.00,0.0197
2057.00,0.0197
2056.00,0.0197
2055.00,0.0197
2054.00,0.0198
2053.00,0.0199
2052.00,0.0199
2051.00,0.0199
2050.00,0.0199
2049.00,0.0199
2048.00,0.0199
2047.00,0.0200
2046.00,0.0201
2045.00,0.0201
2044.00,0.0200
2043.00,0.0198
2042.00,0.0197
2041.00,0.0198
2040.00,0.0199
2039.00,0.0201
2038.00,0.0202
2037.00,0.0203
2036.00,0.0202
2035.00,0.0200
2034.00,0.0199
2033.00,0.0197
2032.00,0.0196
2031.00,0.0195
2030.00,0.0195
2029.00,0.0195
2028.00,0.0195
2027.00,0.0194
2026.00,0.0194
2025.00,0.0194
2024.00,0.0193
2023.00,0.0191
2022.00,0.0191
2021.00,0.0192
2020.00,0.0194
2019.00,0.0194
2018.00,0.0194
2017.00,0.0194
2016.00,0.0195
2015.00,0.0195
2014.00,0.0195
2013.00,0.0194
2012.00,0.0192
2011.00,0.0190
2010.00,0.0188
2009.00,0.0187
2008.00,0.0186
2007.00,0.0185
2006.00,0.0185
2005.00,0.0185
2004.00,0.0185
2003.00,0.0186
2002.00,0.0186
2001.00,0.0187
2000.00,0.0188
1999.00,0.0188
1998.00,0.0189
1997.00,0.0189
1996.00,0.0189
1995.00,0.0189
1994.00,0.0190
1993.00,0.0191
1992.00,0.0190
1991.00,0.0188
1990.00,0.0187
1989.00,0.0187
1988.00,0.0186
1987.00,0.0185
1986.00,0.0185
1985.00,0.0184
1984.00,0.0185
1983.00,0.0186
1982.00,0.0187
1981.00,0.0188
1980.00,0.0187
1979.00,0.0185
1978.00,0.0184
1977.00,0.0185
1976.00,0.0186
1975.00,0.0185
1974.00,0.0183
1973.00,0.0182
1972.00,0.0181
1971.00,0.0181
1970.00,0.0182
1969.00,0.0183
1968.00,0.0183
1967.00,0.0183
1966.00,0.0181
1965.00,0.0180
1964.00,0.0180
1963.00,0.0181
1962.00,0.0183
1961.00,0.0183
1960.00,0.0181
1959.00,0.0179
1958.00,0.0177
1957.00,0.0175
1956.00,0.0173
1955.00,0.0171
1954.00,0.0170
1953.00,0.0170
1952.00,0.0169
1951.00,0.0169
1950.00,0.0168
1949.00,0.0167
1948.00,0.0167
1947.00,0.0168
1946.00,0.0169
1945.00,0.0171
1944.00,0.0172
1943.00,0.0171
1942.00,0.0169
1941.00,0.0168
1940.00,0.0168
1939.00,0.0168
1938.00,0.0167
1937.00,0.0167
1936.00,0.0166
1935.00,0.0165
1934.00,0.0165
1933.00,0.0164
1932.00,0.0164
1931.00,0.0164
1930.00,0.0164
1929.00,0.0163
1928.00,0.0163
1927.00,0.0162
1926.00,0.0162
1925.00,0.0164
1924.00,0.0164
1923.00,0.0163
1922.00,0.0162
1921.00,0.0162
1920.00,0.0162
1919.00,0.0161
1918.00,0.0158
1917.00,0.0157
1916.00,0.0156
1915.00,0.0155
1914.00,0.0155
1913.00,0.0154
1912.00,0.0154
1911.00,0.0155
1910.00,0.0155
1909.00,0.0154
1908.00,0.0153
1907.00,0.0152
1906.00,0.0151
1905.00,0.0150
1904.00,0.0149
1903.00,0.0149
1902.00,0.0149
1901.00,0.0148
1900.00,0.0148
1899.00,0.0148
1898.00,0.0148
1897.00,0.0149
1896.00,0.0149
1895.00,0.0148
1894.00,0.0148
1893.00,0.0148
1892.00,0.0147
1891.00,0.0146
1890.00,0.0144
1889.00,0.0143
1888.00,0.0142
1887.00,0.0142
1886.00,0.0143
1885.00,0.0143
1884.00,0.0143
1883.00,0.0141
1882.00,0.0141
1881.00,0.0140
1880.00,0.0140
1879.00,0.0139
1878.00,0.0138
1877.00,0.0137
1876.00,0.0137
1875.00,0.0136
1874.00,0.0136
1873.00,0.0137
1872.00,0.0139
1871.00,0.0141
1870.00,0.0139
1869.00,0.0136
1868.00,0.0133
1867.00,0.0131
1866.00,0.0131
1865.00,0.0132
1864.00,0.0132
1863.00,0.0131
1862.00,0.0130
1861.00,0.0129
1860.00,0.0129
1859.00,0.0128
1858.00,0.0128
1857.00,0.0128
1856.00,0.0128
1855.00,0.0128
1854.00,0.0127
1853.00,0.0125
1852.00,0.0124
1851.00,0.0124
1850.00,0.0124
1849.00,0.0123
1848.00,0.0124
1847.00,0.0125
1846.00,0.0125
1845.00,0.0123
1844.00,0.0119
1843.00,0.0116
1842.00,0.0116
1841.00,0.0118
1840.00,0.0118
1839.00,0.0118
1838.00,0.0117
1837.00,0.0116
1836.00,0.0116
1835.00,0.0116
1834.00,0.0117
1833.00,0.0119
1832.00,0.0121
1831.00,0.0119
1830.00,0.0116
1829.00,0.0114
1828.00,0.0114
1827.00,0.0115
1826.00,0.0114
1825.00,0.0112
1824.00,0.0110
1823.00,0.0109
1822.00,0.0108
1821.00,0.0108
1820.00,0.0107
1819.00,0.0106
1818.00,0.0105
1817.00,0.0105
1816.00,0.0105
1815.00,0.0105
1814.00,0.0105
1813.00,0.0105
1812.00,0.0104
1811.00,0.0103
1810.00,0.0102
1809.00,0.0102
1808.00,0.0102
1807.00,0.0102
1806.00,0.0102
1805.00,0.0103
1804.00,0.0105
1803.00,0.0106
1802.00,0.0106
1801.00,0.0105
1800.00,0.0104
1799.00,0.0103
1798.00,0.0102
1797.00,0.0103
1796.00,0.0105
1795.00,0.0107
1794.00,0.0108
1793.00,0.0106
1792.00,0.0105
1791.00,0.0103
1790.00,0.0104
1789.00,0.0105
1788.00,0.0106
1787.00,0.0107
1786.00,0.0107
1785.00,0.0108
1784.00,0.0109
1783.00,0.0111
1782.00,0.0113
1781.00,0.0114
1780.00,0.0115
1779.00,0.0116
1778.00,0.0117
1777.00,0.0120
1776.00,0.0123
1775.00,0.0127
1774.00,0.0129
1773.00,0.0128
1772.00,0.0126
1771.00,0.0127
1770.00,0.0128
1769.00,0.0130
1768.00,0.0131
1767.00,0.0131
1766.00,0.0133
1765.00,0.0137
1764.00,0.0141
1763.00,0.0142
1762.00,0.0142
1761.00,0.0142
1760.00,0.0144
1759.00,0.0147
1758.00,0.0149
1757.00,0.0149
1756.00,0.0149
1755.00,0.0150
1754.00,0.0153
1753.00,0.0156
1752.00,0.0157
1751.00,0.0159
1750.00,0.0161
1749.00,0.0164
1748.00,0.0166
1747.00,0.0169
1746.00,0.0172
1745.00,0.0175
1744.00,0.0177
1743.00,0.0180
1742.00,0.0182
1741.00,0.0184
1740.00,0.0185
1739.00,0.0186
1738.00,0.0189
1737.00,0.0194
1736.00,0.0198
1735.00,0.0199
1734.00,0.0199
1733.00,0.0202
1732.00,0.0207
1731.00,0.0212
1730.00,0.0216
1729.00,0.0219
1728.00,0.0221
1727.00,0.0224
1726.00,0.0226
1725.00,0.0229
1724.00,0.0232
1723.00,0.0234
1722.00,0.0237
1721.00,0.0241
1720.00,0.0245
1719.00,0.0246
1718.00,0.0245
1717.00,0.0247
1716.00,0.0250
1715.00,0.0252
1714.00,0.0254
1713.00,0.0255
1712.00,0.0256
1711.00,0.0257
1710.00,0.0258
1709.00,0.0260
1708.00,0.0263
1707.00,0.0265
1706.00,0.0266
1705.00,0.0267
1704.00,0.0270
1703.00,0.0273
1702.00,0.0275
1701.00,0.0273
1700.00,0.0269
1699.00,0.0269
1698.00,0.0272
1697.00,0.0275
1696.00,0.0275
1695.00,0.0273
1694.00,0.0273
1693.00,0.0275
1692.00,0.0278
1691.00,0.0280
1690.00,0.0280
1689.00,0.0282
1688.00,0.0284
1687.00,0.0288
1686.00,0.0290
1685.00,0.0289
1684.00,0.0290
1683.00,0.0292
1682.00,0.0294
1681.00,0.0296
1680.00,0.0297
1679.00,0.0298
1678.00,0.0300
1677.00,0.0301
1676.00,0.0302
1675.00,0.0303
1674.00,0.0305
1673.00,0.0308
1672.00,0.0311
1671.00,0.0314
1670.00,0.0316
1669.00,0.0319
1668.00,0.0321
1667.00,0.0323
1666.00,0.0325
1665.00,0.0327
1664.00,0.0329
1663.00,0.0331
1662.00,0.0333
1661.00,0.0335
1660.00,0.0337
1659.00,0.0339
1658.00,0.0340
1657.00,0.0343
1656.00,0.0347
1655.00,0.0351
1654.00,0.0353
1653.00,0.0358
1652.00,0.0359
1651.00,0.0359
1650.00,0.0362
1649.00,0.0365
1648.00,0.0367
1647.00,0.0370
1646.00,0.0374
1645.00,0.0377
1644.00,0.0378
1643.00,0.0380
1642.00,0.0382
1641.00,0.0384
1640.00,0.0386
1639.00,0.0388
1638.00,0.0391
1637.00,0.0395
1636.00,0.0400
1635.00,0.0406
1634.00,0.0408
1633.00,0.0409
1632.00,0.0411
1631.00,0.0413
1630.00,0.0415
1629.00,0.0418
1628.00,0.0422
1627.00,0.0425
1626.00,0.0428
1625.00,0.0431
1624.00,0.0433
1623.00,0.0437
1622.00,0.0439
1621.00,0.0441
1620.00,0.0442
1619.00,0.0443
1618.00,0.0445
1617.00,0.0448
1616.00,0.0452
1615.00,0.0455
1614.00,0.0458
1613.00,0.0459
1612.00,0.0460
1611.00,0.0461
1610.00,0.0463
1609.00,0.0467
1608.00,0.0470
1607.00,0.0472
1606.00,0.0474
1605.00,0.0476
1604.00,0.0477
1603.00,0.0479
1602.00,0.0482
1601.00,0.0484
1600.00,0.0485
1599.00,0.0486
1598.00,0.0488
1597.00,0.0489
1596.00,0.0491
1595.00,0.0493
1594.00,0.0494
1593.00,0.0495
1592.00,0.0496
1591.00,0.0497
1590.00,0.0499
1589.00,0.0500
1588.00,0.0501
1587.00,0.0502
1586.00,0.0503
1585.00,0.0503
1584.00,0.0503
1583.00,0.0504
1582.00,0.0505
1581.00,0.0506
1580.00,0.0506
1579.00,0.0507
1578.00,0.0507
1577.00,0.0508
1576.00,0.0511
1575.00,0.0514
1574.00,0.0514
1573.00,0.0514
1572.00,0.0513
1571.00,0.0513
1570.00,0.0515
1569.00,0.0517
1568.00,0.0517
1567.00,0.0517
1566.00,0.0516
1565.00,0.0515
1564.00,0.0514
1563.00,0.0513
1562.00,0.0512
1561.00,0.0510
1560.00,0.0507
1559.00,0.0514
1558.00,0.0521
1557.00,0.0518
1556.00,0.0513
1555.00,0.0510
1554.00,0.0508
1553.00,0.0506
1552.00,0.0505
1551.00,0.0505
1550.00,0.0505
1549.00,0.0502
1548.00,0.0499
1547.00,0.0496
1546.00,0.0493
1545.00,0.0491
1544.00,0.0490
1543.00,0.0489
1542.00,0.0485
1541.00,0.0483
1540.00,0.0486
1539.00,0.0487
1538.00,0.0484
1537.00,0.0480
1536.00,0.0478
1535.00,0.0477
1534.00,0.0477
1533.00,0.0477
1532.00,0.0477
1531.00,0.0474
1530.00,0.0471
1529.00,0.0469
1528.00,0.0467
1527.00,0.0465
1526.00,0.0463
1525.00,0.0461
1524.00,0.0459
1523.00,0.0457
1522.00,0.0455
1521.00,0.0456
1520.00,0.0457
1519.00,0.0457
1518.00,0.0456
1517.00,0.0455
1516.00,0.0452
1515.00,0.0448
1514.00,0.0444
1513.00,0.0441
1512.00,0.0440
1511.00,0.0439
1510.00,0.0440
1509.00,0.0441
1508.00,0.0441
1507.00,0.0442
1506.00,0.0440
1505.00,0.0433
1504.00,0.0429
1503.00,0.0426
1502.00,0.0424
1501.00,0.0422
1500.00,0.0420
1499.00,0.0418
1498.00,0.0416
1497.00,0.0416
1496.00,0.0417
1495.00,0.0418
1494.00,0.0418
1493.00,0.0419
1492.00,0.0420
1491.00,0.0421
1490.00,0.0423
1489.00,0.0425
1488.00,0.0426
1487.00,0.0424
1486.00,0.0422
1485.00,0.0420
1484.00,0.0419
1483.00,0.0418
1482.00,0.0418
1481.00,0.0418
1480.00,0.0418
1479.00,0.0418
1478.00,0.0418
1477.00,0.0419
1476.00,0.0419
1475.00,0.0419
1474.00,0.0419
1473.00,0.0419
1472.00,0.0420
1471.00,0.0421
1470.00,0.0420
1469.00,0.0419
1468.00,0.0420
1467.00,0.0420
1466.00,0.0420
1465.00,0.0421
1464.00,0.0422
1463.00,0.0422
1462.00,0.0421
1461.00,0.0422
1460.00,0.0422
1459.00,0.0422
1458.00,0.0422
1457.00,0.0424
1456.00,0.0426
1455.00,0.0427
1454.00,0.0427
1453.00,0.0428
1452.00,0.0429
1451.00,0.0430
1450.00,0.0431
1449.00,0.0433
1448.00,0.0436
1447.00,0.0437
1446.00,0.0437
1445.00,0.0436
1444.00,0.0436
1443.00,0.0437
1442.00,0.0437
1441.00,0.0437
1440.00,0.0438
1439.00,0.0439
1438.00,0.0439
1437.00,0.0441
1436.00,0.0443
1435.00,0.0445
1434.00,0.0446
1433.00,0.0447
1432.00,0.0447
1431.00,0.0448
1430.00,0.0449
1429.00,0.0450
1428.00,0.0451
1427.00,0.0451
1426.00,0.0451
1425.00,0.0451
1424.00,0.0452
1423.00,0.0453
1422.00,0.0453
1421.00,0.0453
1420.00,0.0453
1419.00,0.0457
1418.00,0.0459
1417.00,0.0461
1416.00,0.0461
1415.00,0.0460
1414.00,0.0460
1413.00,0.0459
1412.00,0.0460
1411.00,0.0461
1410.00,0.0461
1409.00,0.0461
1408.00,0.0461
1407.00,0.0462
1406.00,0.0463
1405.00,0.0464
1404.00,0.0466
1403.00,0.0467
1402.00,0.0466
1401.00,0.0466
1400.00,0.0467
1399.00,0.0470
1398.00,0.0471
1397.00,0.0473
1396.00,0.0474
1395.00,0.0476
1394.00,0.0476
1393.00,0.0476
1392.00,0.0475
1391.00,0.0475
1390.00,0.0475
1389.00,0.0476
1388.00,0.0477
1387.00,0.0480
1386.00,0.0482
1385.00,0.0483
1384.00,0.0483
1383.00,0.0484
1382.00,0.0484
1381.00,0.0484
1380.00,0.0485
1379.00,0.0486
1378.00,0.0487
1377.00,0.0488
1376.00,0.0489
1375.00,0.0491
1374.00,0.0494
1373.00,0.0494
1372.00,0.0494
1371.00,0.0493
1370.00,0.0493
1369.00,0.0494
1368.00,0.0494
1367.00,0.0494
1366.00,0.0493
1365.00,0.0494
1364.00,0.0495
1363.00,0.0497
1362.00,0.0498
1361.00,0.0498
1360.00,0.0498
1359.00,0.0497
1358.00,0.0496
1357.00,0.0496
1356.00,0.0496
1355.00,0.0495
1354.00,0.0495
1353.00,0.0495
1352.00,0.0494
1351.00,0.0493
1350.00,0.0493
1349.00,0.0493
1348.00,0.0493
1347.00,0.0493
1346.00,0.0493
1345.00,0.0492
1344.00,0.0491
1343.00,0.0491
1342.00,0.0491
1341.00,0.0492
1340.00,0.0493
1339.00,0.0495
1338.00,0.0495
1337.00,0.0494
1336.00,0.0492
1335.00,0.0491
1334.00,0.0489
1333.00,0.0488
1332.00,0.0488
1331.00,0.0487
1330.00,0.0487
1329.00,0.0486
1328.00,0.0486
1327.00,0.0485
1326.00,0.0485
1325.00,0.0484
1324.00,0.0484
1323.00,0.0484
1322.00,0.0484
1321.00,0.0483
1320.00,0.0483
1319.00,0.0483
1318.00,0.0484
1317.00,0.0484
1316.00,0.0485
1315.00,0.0485
1314.00,0.0485
1313.00,0.0485
1312.00,0.0485
1311.00,0.0484
1310.00,0.0484
1309.00,0.0484
1308.00,0.0484
1307.00,0.0484
1306.00,0.0483
1305.00,0.0483
1304.00,0.0483
1303.00,0.0483
1302.00,0.0483
1301.00,0.0483
1300.00,0.0483
1299.00,0.0484
1298.00,0.0484
1297.00,0.0484
1296.00,0.0484
1295.00,0.0484
1294.00,0.0485
1293.00,0.0485
1292.00,0.0486
1291.00,0.0486
1290.00,0.0487
1289.00,0.0487
1288.00,0.0488
1287.00,0.0489
1286.00,0.0490
1285.00,0.0490
1284.00,0.0490
1283.00,0.0490
1282.00,0.0490
1281.00,0.0490
1280.00,0.0491
1279.00,0.0492
1278.00,0.0492
1277.00,0.0493
1276.00,0.0493
1275.00,0.0494
1274.00,0.0494
1273.00,0.0494
1272.00,0.0495
1271.00,0.0495
1270.00,0.0495
1269.00,0.0495
1268.00,0.0495
1267.00,0.0495
1266.00,0.0495
1265.00,0.0495
1264.00,0.0494
1263.00,0.0494
1262.00,0.0495
1261.00,0.0496
1260.00,0.0497
1259.00,0.0498
1258.00,0.0499
1257.00,0.0500
1256.00,0.0500
1255.00,0.0502
1254.00,0.0503
1253.00,0.0504
1252.00,0.0504
1251.00,0.0505
1250.00,0.0506
1249.00,0.0506
1248.00,0.0507
1247.00,0.0507
1246.00,0.0508
1245.00,0.0508
1244.00,0.0509
1243.00,0.0509
1242.00,0.0509
1241.00,0.0509
1240.00,0.0509
1239.00,0.0510
1238.00,0.0510
1237.00,0.0511
1236.00,0.0512
1235.00,0.0511
1234.00,0.0511
1233.00,0.0510
1232.00,0.0510
1231.00,0.0511
1230.00,0.0511
1229.00,0.0512
1228.00,0.0512
1227.00,0.0512
1226.00,0.0513
1225.00,0.0513
1224.00,0.0514
1223.00,0.0514
1222.00,0.0513
1221.00,0.0512
1220.00,0.0512
1219.00,0.0511
1218.00,0.0511
1217.00,0.0511
1216.00,0.0511
1215.00,0.0511
1214.00,0.0511
1213.00,0.0511
1212.00,0.0511
1211.00,0.0511
1210.00,0.0511
1209.00,0.0510
1208.00,0.0510
1207.00,0.0510
1206.00,0.0510
1205.00,0.0510
1204.00,0.0510
1203.00,0.0509
1202.00,0.0509
1201.00,0.0508
1200.00,0.0508
1199.00,0.0508
1198.00,0.0508
1197.00,0.0508
1196.00,0.0508
1195.00,0.0508
1194.00,0.0508
1193.00,0.0507
1192.00,0.0507
1191.00,0.0507
1190.00,0.0507
1189.00,0.0507
1188.00,0.0508
1187.00,0.0508
1186.00,0.0508
1185.00,0.0507
1184.00,0.0507
1183.00,0.0507
1182.00,0.0506
1181.00,0.0506
1180.00,0.0507
1179.00,0.0508
1178.00,0.0509
1177.00,0.0509
1176.00,0.0509
1175.00,0.0508
1174.00,0.0508
1173.00,0.0507
1172.00,0.0506
1171.00,0.0505
1170.00,0.0505
1169.00,0.0506
1168.00,0.0506
1167.00,0.0507
1166.00,0.0508
1165.00,0.0508
1164.00,0.0508
1163.00,0.0508
1162.00,0.0507
1161.00,0.0507
1160.00,0.0506
1159.00,0.0506
1158.00,0.0506
1157.00,0.0505
1156.00,0.0505
1155.00,0.0505
1154.00,0.0505
1153.00,0.0505
1152.00,0.0505
1151.00,0.0505
1150.00,0.0505
1149.00,0.0506
1148.00,0.0507
1147.00,0.0508
1146.00,0.0509
1145.00,0.0509
1144.00,0.0509
1143.00,0.0509
1142.00,0.0508
1141.00,0.0508
1140.00,0.0508
1139.00,0.0509
1138.00,0.0510
1137.00,0.0511
1136.00,0.0512
1135.00,0.0512
1134.00,0.0513
1133.00,0.0513
1132.00,0.0514
1131.00,0.0515
1130.00,0.0516
1129.00,0.0517
1128.00,0.0518
1127.00,0.0520
1126.00,0.0522
1125.00,0.0523
1124.00,0.0524
1123.00,0.0525
1122.00,0.0526
1121.00,0.0527
1120.00,0.0530
1119.00,0.0533
1118.00,0.0536
1117.00,0.0538
1116.00,0.0540
1115.00,0.0541
1114.00,0.0541
1113.00,0.0541
1112.00,0.0541
1111.00,0.0541
1110.00,0.0543
1109.00,0.0544
1108.00,0.0546
1107.00,0.0548
1106.00,0.0550
1105.00,0.0553
1104.00,0.0554
1103.00,0.0555
1102.00,0.0556
1101.00,0.0556
1100.00,0.0556
1099.00,0.0557
1098.00,0.0559
1097.00,0.0559
1096.00,0.0560
1095.00,0.0561
1094.00,0.0561
1093.00,0.0562
1092.00,0.0563
1091.00,0.0563
1090.00,0.0564
1089.00,0.0564
1088.00,0.0565
1087.00,0.0566
1086.00,0.0567
1085.00,0.0567
1084.00,0.0567
1083.00,0.0568
1082.00,0.0569
1081.00,0.0569
1080.00,0.0569
1079.00,0.0569
1078.00,0.0570
1077.00,0.0570
1076.00,0.0571
1075.00,0.0572
1074.00,0.0572
1073.00,0.0573
1072.00,0.0574
1071.00,0.0575
1070.00,0.0576
1069.00,0.0576
1068.00,0.0576
1067.00,0.0576
1066.00,0.0577
1065.00,0.0578
1064.00,0.0580
1063.00,0.0581
1062.00,0.0582
1061.00,0.0582
1060.00,0.0583
1059.00,0.0584
1058.00,0.0585
1057.00,0.0586
1056.00,0.0586
1055.00,0.0587
1054.00,0.0588
1053.00,0.0590
1052.00,0.0592
1051.00,0.0594
1050.00,0.0596
1049.00,0.0598
1048.00,0.0600
1047.00,0.0601
1046.00,0.0603
1045.00,0.0604
1044.00,0.0605
1043.00,0.0606
1042.00,0.0607
1041.00,0.0608
1040.00,0.0608
1039.00,0.0609
1038.00,0.0610
1037.00,0.0611
1036.00,0.0613
1035.00,0.0615
1034.00,0.0616
1033.00,0.0616
1032.00,0.0616
1031.00,0.0615
1030.00,0.0613
1029.00,0.0610
1028.00,0.0607
1027.00,0.0604
1026.00,0.0601
1025.00,0.0599
1024.00,0.0597
1023.00,0.0596
1022.00,0.0595
1021.00,0.0594
1020.00,0.0593
1019.00,0.0592
1018.00,0.0591
1017.00,0.0590
1016.00,0.0590
1015.00,0.0591
1014.00,0.0592
1013.00,0.0593
1012.00,0.0594
1011.00,0.0596
1010.00,0.0597
1009.00,0.0598
1008.00,0.0598
1007.00,0.0598
1006.00,0.0598
1005.00,0.0598
1004.00,0.0597
1003.00,0.0596
1002.00,0.0594
1001.00,0.0592
1000.00,0.0590
999.00,0.0589
998.00,0.0586
997.00,0.0582
996.00,0.0578
995.00,0.0574
994.00,0.0570
993.00,0.0568
992.00,0.0566
991.00,0.0563
990.00,0.0560
989.00,0.0557
988.00,0.0555
987.00,0.0554
986.00,0.0553
985.00,0.0552
984.00,0.0550
983.00,0.0548
982.00,0.0546
981.00,0.0544
980.00,0.0541
979.00,0.0540
978.00,0.0539
977.00,0.0538
976.00,0.0536
975.00,0.0534
974.00,0.0532
973.00,0.0530
972.00,0.0529
971.00,0.0528
970.00,0.0528
969.00,0.0528
968.00,0.0527
967.00,0.0526
966.00,0.0525
965.00,0.0524
964.00,0.0524
963.00,0.0523
962.00,0.0522
961.00,0.0520
960.00,0.0518
959.00,0.0517
958.00,0.0517
957.00,0.0516
956.00,0.0516
955.00,0.0516
954.00,0.0517
953.00,0.0517
952.00,0.0516
951.00,0.0516
950.00,0.0515
949.00,0.0516
948.00,0.0517
947.00,0.0518
946.00,0.0519
945.00,0.0520
944.00,0.0520
943.00,0.0520
942.00,0.0520
941.00,0.0521
940.00,0.0522
939.00,0.0523
938.00,0.0523
937.00,0.0524
936.00,0.0524
935.00,0.0525
934.00,0.0524
933.00,0.0524
932.00,0.0523
931.00,0.0522
930.00,0.0521
929.00,0.0521
928.00,0.0521
927.00,0.0522
926.00,0.0524
925.00,0.0525
924.00,0.0526
923.00,0.0528
922.00,0.0529
921.00,0.0530
920.00,0.0532
919.00,0.0534
918.00,0.0537
917.00,0.0539
916.00,0.0540
915.00,0.0541
914.00,0.0541
913.00,0.0541
912.00,0.0541
911.00,0.0541
910.00,0.0540
909.00,0.0540
908.00,0.0539
907.00,0.0537
906.00,0.0536
905.00,0.0534
904.00,0.0533
903.00,0.0532
902.00,0.0531
901.00,0.0530
900.00,0.0530
899.00,0.0529
898.00,0.0528
897.00,0.0527
896.00,0.0526
895.00,0.0525
894.00,0.0524
893.00,0.0525
892.00,0.0525
891.00,0.0525
890.00,0.0525
889.00,0.0524
888.00,0.0523
887.00,0.0523
886.00,0.0523
885.00,0.0522
884.00,0.0521
883.00,0.0522
882.00,0.0523
881.00,0.0524
880.00,0.0525
879.00,0.0525
878.00,0.0524
877.00,0.0523
876.00,0.0522
875.00,0.0521
874.00,0.0521
873.00,0.0520
872.00,0.0520
871.00,0.0518
870.00,0.0517
869.00,0.0516
868.00,0.0516
867.00,0.0517
866.00,0.0517
865.00,0.0517
864.00,0.0518
863.00,0.0518
862.00,0.0519
861.00,0.0519
860.00,0.0519
859.00,0.0519
858.00,0.0518
857.00,0.0518
856.00,0.0517
855.00,0.0518
854.00,0.0520
853.00,0.0521
852.00,0.0521
851.00,0.0521
850.00,0.0520
849.00,0.0520
848.00,0.0521
847.00,0.0523
846.00,0.0525
845.00,0.0527
844.00,0.0529
843.00,0.0530
842.00,0.0530
841.00,0.0531
840.00,0.0532
839.00,0.0533
838.00,0.0535
837.00,0.0537
836.00,0.0539
835.00,0.0539
834.00,0.0540
833.00,0.0541
832.00,0.0543
831.00,0.0546
830.00,0.0549
829.00,0.0550
828.00,0.0550
827.00,0.0548
826.00,0.0546
825.00,0.0545
824.00,0.0547
823.00,0.0549
822.00,0.0552
821.00,0.0554
820.00,0.0555
819.00,0.0555
818.00,0.0556
817.00,0.0556
816.00,0.0556
815.00,0.0556
814.00,0.0556
813.00,0.0556
812.00,0.0557
811.00,0.0559
810.00,0.0562
809.00,0.0565
808.00,0.0567
807.00,0.0569
806.00,0.0570
805.00,0.0569
804.00,0.0569
803.00,0.0570
802.00,0.0572
801.00,0.0576
800.00,0.0579
799.00,0.0580
798.00,0.0580
797.00,0.0581
796.00,0.0583
795.00,0.0585
794.00,0.0587
793.00,0.0587
792.00,0.0586
791.00,0.0586
790.00,0.0588
789.00,0.0589
788.00,0.0590
787.00,0.0589
786.00,0.0589
785.00,0.0590
784.00,0.0592
783.00,0.0594
782.00,0.0596
781.00,0.0597
780.00,0.0599
779.00,0.0599
778.00,0.0599
777.00,0.0598
776.00,0.0599
775.00,0.0599
774.00,0.0599
773.00,0.0599
772.00,0.0600
771.00,0.0601
770.00,0.0602
769.00,0.0601
768.00,0.0600
767.00,0.0598
766.00,0.0597
765.00,0.0598
764.00,0.0599
763.00,0.0600
762.00,0.0600
761.00,0.0602
760.00,0.0604
759.00,0.0608
758.00,0.0611
757.00,0.0613
756.00,0.0613
755.00,0.0613
754.00,0.0612
753.00,0.0611
752.00,0.0611
751.00,0.0612
750.00,0.0614
749.00,0.0616
748.00,0.0616
747.00,0.0616
746.00,0.0614
745.00,0.0613
744.00,0.0613
743.00,0.0613
742.00,0.0613
741.00,0.0612
740.00,0.0611
739.00,0.0611
738.00,0.0611
737.00,0.0611
736.00,0.0612
735.00,0.0612
734.00,0.0612
733.00,0.0613
732.00,0.0614
731.00,0.0616
730.00,0.0616
729.00,0.0615
728.00,0.0614
727.00,0.0613
726.00,0.0612
725.00,0.0613
724.00,0.0614
723.00,0.0614
722.00,0.0615
721.00,0.0616
720.00,0.0618
719.00,0.0618
718.00,0.0618
717.00,0.0619
716.00,0.0620
715.00,0.0623
714.00,0.0627
713.00,0.0631
712.00,0.0636
711.00,0.0637
710.00,0.0636
709.00,0.0633
708.00,0.0632
707.00,0.0635
706.00,0.0639
705.00,0.0645
704.00,0.0650
703.00,0.0653
702.00,0.0654
701.00,0.0656
700.00,0.0657
699.00,0.0658
698.00,0.0658
697.00,0.0659
696.00,0.0662
695.00,0.0664
694.00,0.0665
693.00,0.0665
692.00,0.0665
691.00,0.0667
690.00,0.0668
689.00,0.0668
688.00,0.0667
687.00,0.0666
686.00,0.0665
685.00,0.0664
684.00,0.0664
683.00,0.0665
682.00,0.0669
681.00,0.0672
680.00,0.0675
679.00,0.0676
678.00,0.0678
677.00,0.0681
676.00,0.0686
675.00,0.0689
674.00,0.0689
673.00,0.0687
672.00,0.0683
671.00,0.0677
670.00,0.0672
669.00,0.0676
668.00,0.0690
667.00,0.0700
666.00,0.0703
665.00,0.0702
664.00,0.0700
663.00,0.0698
662.00,0.0696
661.00,0.0698
660.00,0.0705
659.00,0.0714
658.00,0.0719
657.00,0.0718
656.00,0.0715
655.00,0.0712
654.00,0.0711
653.00,0.0712
652.00,0.0714
651.00,0.0716
650.00,0.0716
