Created as New Dataset,
cm-1,A
4000.00,0.0086
3999.00,0.0086
3998.00,0.0086
3997.00,0.0086
3996.00,0.0086
3995.00,0.0086
3994.00,0.0086
3993.00,0.0087
3992.00,0.0087
3991.00,0.0087
3990.00,0.0086
3989.00,0.0086
3988.00,0.0086
3987.00,0.0086
3986.00,0.0086
3985.00,0.0086
3984.00,0.0086
3983.00,0.0086
3982.00,0.0086
3981.00,0.0086
3980.00,0.0086
3979.00,0.0086
3978.00,0.0086
3977.00,0.0087
3976.00,0.0087
3975.00,0.0087
3974.00,0.0088
3973.00,0.0088
3972.00,0.0088
3971.00,0.0087
3970.00,0.0087
3969.00,0.0086
3968.00,0.0085
3967.00,0.0085
3966.00,0.0085
3965.00,0.0085
3964.00,0.0085
3963.00,0.0086
3962.00,0.0086
3961.00,0.0086
3960.00,0.0086
3959.00,0.0086
3958.00,0.0086
3957.00,0.0087
3956.00,0.0087
3955.00,0.0087
3954.00,0.0087
3953.00,0.0087
3952.00,0.0087
3951.00,0.0088
3950.00,0.0088
3949.00,0.0088
3948.00,0.0088
3947.00,0.0088
3946.00,0.0089
3945.00,0.0090
3944.00,0.0090
3943.00,0.0090
3942.00,0.0089
3941.00,0.0088
3940.00,0.0088
3939.00,0.0088
3938.00,0.0087
3937.00,0.0087
3936.00,0.0087
3935.00,0.0088
3934.00,0.0088
3933.00,0.0088
3932.00,0.0089
3931.00,0.0089
3930.00,0.0090
3929.00,0.0090
3928.00,0.0091
3927.00,0.0091
3926.00,0.0091
3925.00,0.0090
3924.00,0.0089
3923.00,0.0089
3922.00,0.0089
3921.00,0.0089
3920.00,0.0089
3919.00,0.0088
3918.00,0.0088
3917.00,0.0088
3916.00,0.0088
3915.00,0.0088
3914.00,0.0087
3913.00,0.0087
3912.00,0.0086
3911.00,0.0085
3910.00,0.0085
3909.00,0.0086
3908.00,0.0087
3907.00,0.0089
3906.00,0.0090
3905.00,0.0090
3904.00,0.0091
3903.00,0.0093
3902.00,0.0095
3901.00,0.0097
3900.00,0.0096
3899.00,0.0093
3898.00,0.0091
3897.00,0.0090
3896.00,0.0090
3895.00,0.0090
3894.00,0.0089
3893.00,0.0089
3892.00,0.0087
3891.00,0.0086
3890.00,0.0086
3889.00,0.0088
3888.00,0.0090
3887.00,0.0091
3886.00,0.0089
3885.00,0.0089
3884.00,0.0091
3883.00,0.0095
3882.00,0.0097
3881.00,0.0095
3880.00,0.0092
3879.00,0.0090
3878.00,0.0090
3877.00,0.0092
3876.00,0.0093
3875.00,0.0091
3874.00,0.0089
3873.00,0.0090
3872.00,0.0092
3871.00,0.0093
3870.00,0.0090
3869.00,0.0089
3868.00,0.0090
3867.00,0.0093
3866.00,0.0094
3865.00,0.0092
3864.00,0.0090
3863.00,0.0090
3862.00,0.0090
3861.00,0.0089
3860.00,0.0088
3859.00,0.0087
3858.00,0.0087
3857.00,0.0088
3856.00,0.0090
3855.00,0.0090
3854.00,0.0089
3853.00,0.0089
3852.00,0.0091
3851.00,0.0092
3850.00,0.0092
3849.00,0.0090
3848.00,0.0087
3847.00,0.0086
3846.00,0.0086
3845.00,0.0086
3844.00,0.0086
3843.00,0.0087
3842.00,0.0089
3841.00,0.0091
3840.00,0.0092
3839.00,0.0092
3838.00,0.0092
3837.00,0.0091
3836.00,0.0091
3835.00,0.0091
3834.00,0.0090
3833.00,0.0089
3832.00,0.0087
3831.00,0.0086
3830.00,0.0086
3829.00,0.0087
3828.00,0.0088
3827.00,0.0087
3826.00,0.0085
3825.00,0.0086
3824.00,0.0088
3823.00,0.0090
3822.00,0.0089
3821.00,0.0086
3820.00,0.0086
3819.00,0.0089
3818.00,0.0091
3817.00,0.0090
3816.00,0.0086
3815.00,0.0083
3814.00,0.0084
3813.00,0.0085
3812.00,0.0084
3811.00,0.0082
3810.00,0.0081
3809.00,0.0082
3808.00,0.0081
3807.00,0.0080
3806.00,0.0080
3805.00,0.0083
3804.00,0.0088
3803.00,0.0090
3802.00,0.0088
3801.00,0.0086
3800.00,0.0087
3799.00,0.0089
3798.00,0.0089
3797.00,0.0087
3796.00,0.0084
3795.00,0.0083
3794.00,0.0083
3793.00,0.0083
3792.00,0.0082
3791.00,0.0081
3790.00,0.0081
3789.00,0.0081
3788.00,0.0081
3787.00,0.0081
3786.00,0.0081
3785.00,0.0081
3784.00,0.0081
3783.00,0.0082
3782.00,0.0083
3781.00,0.0083
3780.00,0.0082
3779.00,0.0081
3778.00,0.0081
3777.00,0.0082
3776.00,0.0082
3775.00,0.0081
3774.00,0.0079
3773.00,0.0079
3772.00,0.0080
3771.00,0.0080
3770.00,0.0080
3769.00,0.0080
3768.00,0.0082
3767.00,0.0084
3766.00,0.0083
3765.00,0.0081
3764.00,0.0081
3763.00,0.0082
3762.00,0.0084
3761.00,0.0084
3760.00,0.0083
3759.00,0.0083
3758.00,0.0083
3757.00,0.0082
3756.00,0.0082
3755.00,0.0082
3754.00,0.0082
3753.00,0.0080
3752.00,0.0079
3751.00,0.0080
3750.00,0.0083
3749.00,0.0084
3748.00,0.0085
3747.00,0.0088
3746.00,0.0089
3745.00,0.0086
3744.00,0.0083
3743.00,0.0083
3742.00,0.0085
3741.00,0.0085
3740.00,0.0083
3739.00,0.0082
3738.00,0.0082
3737.00,0.0084
3736.00,0.0086
3735.00,0.0087
3734.00,0.0088
3733.00,0.0087
3732.00,0.0084
3731.00,0.0081
3730.00,0.0080
3729.00,0.0080
3728.00,0.0080
3727.00,0.0079
3726.00,0.0080
3725.00,0.0081
3724.00,0.0083
3723.00,0.0084
3722.00,0.0083
3721.00,0.0083
3720.00,0.0082
3719.00,0.0082
3718.00,0.0081
3717.00,0.0080
3716.00,0.0081
3715.00,0.0082
3714.00,0.0083
3713.00,0.0083
3712.00,0.0084
3711.00,0.0086
3710.00,0.0088
3709.00,0.0088
3708.00,0.0087
3707.00,0.0085
3706.00,0.0084
3705.00,0.0084
3704.00,0.0085
3703.00,0.0086
3702.00,0.0087
3701.00,0.0088
3700.00,0.0088
3699.00,0.0089
3698.00,0.0089
3697.00,0.0088
3696.00,0.0088
3695.00,0.0088
3694.00,0.0089
3693.00,0.0091
3692.00,0.0092
3691.00,0.0093
3690.00,0.0095
3689.00,0.0096
3688.00,0.0095
3687.00,0.0094
3686.00,0.0094
3685.00,0.0093
3684.00,0.0091
3683.00,0.0090
3682.00,0.0089
3681.00,0.0089
3680.00,0.0089
3679.00,0.0090
3678.00,0.0093
3677.00,0.0097
3676.00,0.0099
3675.00,0.0100
3674.00,0.0101
3673.00,0.0104
3672.00,0.0105
3671.00,0.0104
3670.00,0.0102
3669.00,0.0103
3668.00,0.0104
3667.00,0.0105
3666.00,0.0104
3665.00,0.0103
3664.00,0.0102
3663.00,0.0102
3662.00,0.0102
3661.00,0.0102
3660.00,0.0103
3659.00,0.0105
3658.00,0.0108
3657.00,0.0110
3656.00,0.0111
3655.00,0.0114
3654.00,0.0118
3653.00,0.0121
3652.00,0.0122
3651.00,0.0122
3650.00,0.0125
3649.00,0.0132
3648.00,0.0138
3647.00,0.0140
3646.00,0.0138
3645.00,0.0136
3644.00,0.0134
3643.00,0.0133
3642.00,0.0132
3641.00,0.0132
3640.00,0.0132
3639.00,0.0133
3638.00,0.0134
3637.00,0.0135
3636.00,0.0136
3635.00,0.0136
3634.00,0.0136
3633.00,0.0136
3632.00,0.0138
3631.00,0.0142
3630.00,0.0145
3629.00,0.0149
3628.00,0.0152
3627.00,0.0155
3626.00,0.0156
3625.00,0.0154
3624.00,0.0153
3623.00,0.0152
3622.00,0.0154
3621.00,0.0158
3620.00,0.0162
3619.00,0.0166
3618.00,0.0169
3617.00,0.0170
3616.00,0.0171
3615.00,0.0170
3614.00,0.0168
3613.00,0.0168
3612.00,0.0168
3611.00,0.0169
3610.00,0.0170
3609.00,0.0172
3608.00,0.0173
3607.00,0.0174
3606.00,0.0175
3605.00,0.0175
3604.00,0.0174
3603.00,0.0174
3602.00,0.0174
3601.00,0.0175
3600.00,0.0176
3599.00,0.0177
3598.00,0.0179
3597.00,0.0180
3596.00,0.0182
3595.00,0.0183
3594.00,0.0184
3593.00,0.0183
3592.00,0.0183
3591.00,0.0183
3590.00,0.0184
3589.00,0.0187
3588.00,0.0191
3587.00,0.0195
3586.00,0.0197
3585.00,0.0197
3584.00,0.0196
3583.00,0.0194
3582.00,0.0193
3581.00,0.0193
3580.00,0.0194
3579.00,0.0196
3578.00,0.0197
3577.00,0.0198
3576.00,0.0198
3575.00,0.0197
3574.00,0.0197
3573.00,0.0197
3572.00,0.0198
3571.00,0.0199
3570.00,0.0201
3569.00,0.0205
3568.00,0.0209
3567.00,0.0214
3566.00,0.0218
3565.00,0.0219
3564.00,0.0219
3563.00,0.0216
3562.00,0.0214
3561.00,0.0213
3560.00,0.0212
3559.00,0.0212
3558.00,0.0212
3557.00,0.0211
3556.00,0.0211
3555.00,0.0212
3554.00,0.0214
3553.00,0.0215
3552.00,0.0217
3551.00,0.0218
3550.00,0.0219
3549.00,0.0219
3548.00,0.0220
3547.00,0.0222
3546.00,0.0224
3545.00,0.0226
3544.00,0.0227
3543.00,0.0227
3542.00,0.0226
3541.00,0.0225
3540.00,0.0225
3539.00,0.0226
3538.00,0.0227
3537.00,0.0228
3536.00,0.0229
3535.00,0.0229
3534.00,0.0229
3533.00,0.0229
3532.00,0.0229
3531.00,0.0230
3530.00,0.0231
3529.00,0.0233
3528.00,0.0235
3527.00,0.0236
3526.00,0.0238
3525.00,0.0239
3524.00,0.0240
3523.00,0.0240
3522.00,0.0240
3521.00,0.0240
3520.00,0.0241
3519.00,0.0241
3518.00,0.0241
3517.00,0.0242
3516.00,0.0243
3515.00,0.0243
3514.00,0.0243
3513.00,0.0244
3512.00,0.0245
3511.00,0.0246
3510.00,0.0248
3509.00,0.0249
3508.00,0.0250
3507.00,0.0251
3506.00,0.0251
3505.00,0.0251
3504.00,0.0252
3503.00,0.0254
3502.00,0.0255
3501.00,0.0256
3500.00,0.0256
3499.00,0.0256
3498.00,0.0256
3497.00,0.0256
3496.00,0.0256
3495.00,0.0257
3494.00,0.0258
3493.00,0.0258
3492.00,0.0258
3491.00,0.0258
3490.00,0.0259
3489.00,0.0259
3488.00,0.0260
3487.00,0.0262
3486.00,0.0263
3485.00,0.0264
3484.00,0.0264
3483.00,0.0265
3482.00,0.0266
3481.00,0.0267
3480.00,0.0268
3479.00,0.0268
3478.00,0.0269
3477.00,0.0269
3476.00,0.0269
3475.00,0.0270
3474.00,0.0271
3473.00,0.0271
3472.00,0.0272
3471.00,0.0273
3470.00,0.0274
3469.00,0.0274
3468.00,0.0275
3467.00,0.0275
3466.00,0.0275
3465.00,0.0276
3464.00,0.0276
3463.00,0.0277
3462.00,0.0278
3461.00,0.0279
3460.00,0.0279
3459.00,0.0279
3458.00,0.0279
3457.00,0.0280
3456.00,0.0280
3455.00,0.0281
3454.00,0.0282
3453.00,0.0283
3452.00,0.0284
3451.00,0.0284
3450.00,0.0285
3449.00,0.0285
3448.00,0.0286
3447.00,0.0287
3446.00,0.0288
3445.00,0.0289
3444.00,0.0289
3443.00,0.0289
3442.00,0.0289
3441.00,0.0289
3440.00,0.0290
3439.00,0.0290
3438.00,0.0291
3437.00,0.0291
3436.00,0.0292
3435.00,0.0292
3434.00,0.0293
3433.00,0.0293
3432.00,0.0294
3431.00,0.0294
3430.00,0.0294
3429.00,0.0294
3428.00,0.0294
3427.00,0.0294
3426.00,0.0295
3425.00,0.0296
3424.00,0.0297
3423.00,0.0298
3422.00,0.0298
3421.00,0.0299
3420.00,0.0299
3419.00,0.0300
3418.00,0.0300
3417.00,0.0301
3416.00,0.0301
3415.00,0.0301
3414.00,0.0301
3413.00,0.0303
3412.00,0.0304
3411.00,0.0304
3410.00,0.0305
3409.00,0.0305
3408.00,0.0305
3407.00,0.0306
3406.00,0.0306
3405.00,0.0307
3404.00,0.0308
3403.00,0.0308
3402.00,0.0308
3401.00,0.0308
3400.00,0.0308
3399.00,0.0308
3398.00,0.0308
3397.00,0.0308
3396.00,0.0309
3395.00,0.0309
3394.00,0.0310
3393.00,0.0311
3392.00,0.0312
3391.00,0.0312
3390.00,0.0312
3389.00,0.0311
3388.00,0.0311
3387.00,0.0311
3386.00,0.0312
3385.00,0.0313
3384.00,0.0313
3383.00,0.0314
3382.00,0.0314
3381.00,0.0313
3380.00,0.0313
3379.00,0.0313
3378.00,0.0313
3377.00,0.0313
3376.00,0.0314
3375.00,0.0315
3374.00,0.0316
3373.00,0.0316
3372.00,0.0316
3371.00,0.0317
3370.00,0.0317
3369.00,0.0317
3368.00,0.0317
3367.00,0.0318
3366.00,0.0319
3365.00,0.0319
3364.00,0.0320
3363.00,0.0320
3362.00,0.0320
3361.00,0.0320
3360.00,0.0320
3359.00,0.0320
3358.00,0.0320
3357.00,0.0321
3356.00,0.0321
3355.00,0.0321
3354.00,0.0321
3353.00,0.0321
3352.00,0.0321
3351.00,0.0321
3350.00,0.0321
3349.00,0.0321
3348.00,0.0320
3347.00,0.0320
3346.00,0.0321
3345.00,0.0321
3344.00,0.0322
3343.00,0.0323
3342.00,0.0323
3341.00,0.0323
3340.00,0.0323
3339.00,0.0323
3338.00,0.0324
3337.00,0.0325
3336.00,0.0325
3335.00,0.0325
3334.00,0.0325
3333.00,0.0325
3332.00,0.0325
3331.00,0.0325
3330.00,0.0325
3329.00,0.0324
3328.00,0.0324
3327.00,0.0324
3326.00,0.0325
3325.00,0.0325
3324.00,0.0325
3323.00,0.0325
3322.00,0.0325
3321.00,0.0325
3320.00,0.0325
3319.00,0.0326
3318.00,0.0326
3317.00,0.0326
3316.00,0.0326
3315.00,0.0325
3314.00,0.0325
3313.00,0.0325
3312.00,0.0326
3311.00,0.0326
3310.00,0.0327
3309.00,0.0328
3308.00,0.0328
3307.00,0.0328
3306.00,0.0328
3305.00,0.0329
3304.00,0.0329
3303.00,0.0329
3302.00,0.0329
3301.00,0.0328
3300.00,0.0328
3299.00,0.0328
3298.00,0.0328
3297.00,0.0328
3296.00,0.0328
3295.00,0.0328
3294.00,0.0328
3293.00,0.0328
3292.00,0.0329
3291.00,0.0329
3290.00,0.0330
3289.00,0.0330
3288.00,0.0330
3287.00,0.0330
3286.00,0.0330
3285.00,0.0330
3284.00,0.0330
3283.00,0.0330
3282.00,0.0330
3281.00,0.0330
3280.00,0.0330
3279.00,0.0330
3278.00,0.0330
3277.00,0.0330
3276.00,0.0330
3275.00,0.0331
3274.00,0.0331
3273.00,0.0332
3272.00,0.0332
3271.00,0.0331
3270.00,0.0331
3269.00,0.0331
3268.00,0.0331
3267.00,0.0331
3266.00,0.0331
3265.00,0.0331
3264.00,0.0332
3263.00,0.0332
3262.00,0.0332
3261.00,0.0332
3260.00,0.0332
3259.00,0.0332
3258.00,0.0332
3257.00,0.0332
3256.00,0.0333
3255.00,0.0333
3254.00,0.0332
3253.00,0.0332
3252.00,0.0332
3251.00,0.0332
3250.00,0.0332
3249.00,0.0333
3248.00,0.0333
3247.00,0.0333
3246.00,0.0334
3245.00,0.0334
3244.00,0.0334
3243.00,0.0334
3242.00,0.0334
3241.00,0.0333
3240.00,0.0333
3239.00,0.0333
3238.00,0.0334
3237.00,0.0334
3236.00,0.0334
3235.00,0.0334
3234.00,0.0335
3233.00,0.0335
3232.00,0.0335
3231.00,0.0336
3230.00,0.0336
3229.00,0.0335
3228.00,0.0335
3227.00,0.0335
3226.00,0.0335
3225.00,0.0335
3224.00,0.0335
3223.00,0.0335
3222.00,0.0335
3221.00,0.0335
3220.00,0.0335
3219.00,0.0335
3218.00,0.0334
3217.00,0.0334
3216.00,0.0334
3215.00,0.0334
3214.00,0.0334
3213.00,0.0334
3212.00,0.0335
3211.00,0.0335
3210.00,0.0335
3209.00,0.0335
3208.00,0.0334
3207.00,0.0334
3206.00,0.0334
3205.00,0.0334
3204.00,0.0334
3203.00,0.0334
3202.00,0.0334
3201.00,0.0334
3200.00,0.0335
3199.00,0.0335
3198.00,0.0335
3197.00,0.0335
3196.00,0.0335
3195.00,0.0334
3194.00,0.0334
3193.00,0.0334
3192.00,0.0333
3191.00,0.0333
3190.00,0.0332
3189.00,0.0332
3188.00,0.0331
3187.00,0.0332
3186.00,0.0332
3185.00,0.0332
3184.00,0.0333
3183.00,0.0332
3182.00,0.0332
3181.00,0.0332
3180.00,0.0332
3179.00,0.0332
3178.00,0.0332
3177.00,0.0331
3176.00,0.0331
3175.00,0.0331
3174.00,0.0331
3173.00,0.0331
3172.00,0.0331
3171.00,0.0331
3170.00,0.0331
3169.00,0.0331
3168.00,0.0330
3167.00,0.0330
3166.00,0.0330
3165.00,0.0330
3164.00,0.0330
3163.00,0.0329
3162.00,0.0329
3161.00,0.0329
3160.00,0.0329
3159.00,0.0329
3158.00,0.0329
3157.00,0.0329
3156.00,0.0328
3155.00,0.0328
3154.00,0.0327
3153.00,0.0327
3152.00,0.0327
3151.00,0.0326
3150.00,0.0326
3149.00,0.0326
3148.00,0.0326
3147.00,0.0326
3146.00,0.0326
3145.00,0.0326
3144.00,0.0326
3143.00,0.0325
3142.00,0.0325
3141.00,0.0325
3140.00,0.0324
3139.00,0.0324
3138.00,0.0324
3137.00,0.0324
3136.00,0.0324
3135.00,0.0324
3134.00,0.0324
3133.00,0.0324
3132.00,0.0324
3131.00,0.0324
3130.00,0.0324
3129.00,0.0323
3128.00,0.0323
3127.00,0.0322
3126.00,0.0322
3125.00,0.0322
3124.00,0.0321
3123.00,0.0321
3122.00,0.0321
3121.00,0.0321
3120.00,0.0321
3119.00,0.0321
3118.00,0.0321
3117.00,0.0321
3116.00,0.0321
3115.00,0.0321
3114.00,0.0321
3113.00,0.0321
3112.00,0.0321
3111.00,0.0320
3110.00,0.0319
3109.00,0.0318
3108.00,0.0318
3107.00,0.0318
3106.00,0.0318
3105.00,0.0318
3104.00,0.0318
3103.00,0.0319
3102.00,0.0319
3101.00,0.0319
3100.00,0.0318
3099.00,0.0318
3098.00,0.0319
3097.00,0.0319
3096.00,0.0319
3095.00,0.0318
3094.00,0.0318
3093.00,0.0317
3092.00,0.0317
3091.00,0.0316
3090.00,0.0316
3089.00,0.0316
3088.00,0.0316
3087.00,0.0316
3086.00,0.0316
3085.00,0.0315
3084.00,0.0315
3083.00,0.0314
3082.00,0.0314
3081.00,0.0314
3080.00,0.0314
3079.00,0.0314
3078.00,0.0314
3077.00,0.0314
3076.00,0.0314
3075.00,0.0313
3074.00,0.0313
3073.00,0.0313
3072.00,0.0313
3071.00,0.0313
3070.00,0.0313
3069.00,0.0312
3068.00,0.0311
3067.00,0.0311
3066.00,0.0311
3065.00,0.0311
3064.00,0.0311
3063.00,0.0311
3062.00,0.0310
3061.00,0.0310
3060.00,0.0309
3059.00,0.0309
3058.00,0.0309
3057.00,0.0309
3056.00,0.0309
3055.00,0.0309
3054.00,0.0309
3053.00,0.0308
3052.00,0.0308
3051.00,0.0307
3050.00,0.0307
3049.00,0.0306
3048.00,0.0305
3047.00,0.0305
3046.00,0.0305
3045.00,0.0305
3044.00,0.0304
3043.00,0.0304
3042.00,0.0304
3041.00,0.0303
3040.00,0.0303
3039.00,0.0303
3038.00,0.0303
3037.00,0.0303
3036.00,0.0303
3035.00,0.0303
3034.00,0.0302
3033.00,0.0302
3032.00,0.0301
3031.00,0.0301
3030.00,0.0300
3029.00,0.0300
3028.00,0.0299
3027.00,0.0299
3026.00,0.0298
3025.00,0.0298
3024.00,0.0298
3023.00,0.0297
3022.00,0.0297
3021.00,0.0297
3020.00,0.0296
3019.00,0.0296
3018.00,0.0295
3017.00,0.0295
3016.00,0.0295
3015.00,0.0295
3014.00,0.0295
3013.00,0.0295
3012.00,0.0294
3011.00,0.0294
3010.00,0.0293
3009.00,0.0293
3008.00,0.0292
3007.00,0.0292
3006.00,0.0291
3005.00,0.0291
3004.00,0.0290
3003.00,0.0290
3002.00,0.0289
3001.00,0.0288
3000.00,0.0287
2999.00,0.0287
2998.00,0.0286
2997.00,0.0286
2996.00,0.0286
2995.00,0.0286
2994.00,0.0286
2993.00,0.0285
2992.00,0.0285
2991.00,0.0284
2990.00,0.0283
2989.00,0.0283
2988.00,0.0282
2987.00,0.0282
2986.00,0.0281
2985.00,0.0281
2984.00,0.0280
2983.00,0.0279
2982.00,0.0278
2981.00,0.0277
2980.00,0.0277
2979.00,0.0277
2978.00,0.0277
2977.00,0.0277
2976.00,0.0277
2975.00,0.0277
2974.00,0.0276
2973.00,0.0276
2972.00,0.0275
2971.00,0.0274
2970.00,0.0274
2969.00,0.0273
2968.00,0.0273
2967.00,0.0272
2966.00,0.0272
2965.00,0.0272
2964.00,0.0272
2963.00,0.0271
2962.00,0.0271
2961.00,0.0270
2960.00,0.0270
2959.00,0.0270
2958.00,0.0269
2957.00,0.0269
2956.00,0.0268
2955.00,0.0268
2954.00,0.0269
2953.00,0.0269
2952.00,0.0270
2951.00,0.0270
2950.00,0.0270
2949.00,0.0269
2948.00,0.0269
2947.00,0.0270
2946.00,0.0270
2945.00,0.0270
2944.00,0.0270
2943.00,0.0270
2942.00,0.0269
2941.00,0.0268
2940.00,0.0268
2939.00,0.0267
2938.00,0.0267
2937.00,0.0266
2936.00,0.0265
2935.00,0.0264
2934.00,0.0263
2933.00,0.0262
2932.00,0.0261
2931.00,0.0260
2930.00,0.0258
2929.00,0.0257
2928.00,0.0255
2927.00,0.0254
2926.00,0.0253
2925.00,0.0252
2924.00,0.0252
2923.00,0.0252
2922.00,0.0252
2921.00,0.0252
2920.00,0.0252
2919.00,0.0251
2918.00,0.0250
2917.00,0.0249
2916.00,0.0250
2915.00,0.0251
2914.00,0.0253
2913.00,0.0254
2912.00,0.0255
2911.00,0.0255
2910.00,0.0256
2909.00,0.0256
2908.00,0.0257
2907.00,0.0257
2906.00,0.0257
2905.00,0.0257
2904.00,0.0257
2903.00,0.0257
2902.00,0.0257
2901.00,0.0257
2900.00,0.0257
2899.00,0.0256
2898.00,0.0256
2897.00,0.0255
2896.00,0.0255
2895.00,0.0255
2894.00,0.0255
2893.00,0.0255
2892.00,0.0255
2891.00,0.0255
2890.00,0.0255
2889.00,0.0255
2888.00,0.0255
2887.00,0.0255
2886.00,0.0255
2885.00,0.0255
2884.00,0.0255
2883.00,0.0255
2882.00,0.0256
2881.00,0.0256
2880.00,0.0255
2879.00,0.0254
2878.00,0.0254
2877.00,0.0253
2876.00,0.0252
2875.00,0.0251
2874.00,0.0250
2873.00,0.0250
2872.00,0.0249
2871.00,0.0249
2870.00,0.0248
2869.00,0.0248
2868.00,0.0248
2867.00,0.0247
2866.00,0.0247
2865.00,0.0246
2864.00,0.0246
2863.00,0.0246
2862.00,0.0246
2861.00,0.0245
2860.00,0.0244
2859.00,0.0244
2858.00,0.0244
2857.00,0.0243
2856.00,0.0242
2855.00,0.0241
2854.00,0.0241
2853.00,0.0240
2852.00,0.0240
2851.00,0.0239
2850.00,0.0239
2849.00,0.0239
2848.00,0.0240
2847.00,0.0240
2846.00,0.0241
2845.00,0.0241
2844.00,0.0242
2843.00,0.0242
2842.00,0.0243
2841.00,0.0243
2840.00,0.0244
2839.00,0.0244
2838.00,0.0244
2837.00,0.0244
2836.00,0.0243
2835.00,0.0243
2834.00,0.0242
2833.00,0.0242
2832.00,0.0242
2831.00,0.0242
2830.00,0.0242
2829.00,0.0242
2828.00,0.0241
2827.00,0.0241
2826.00,0.0241
2825.00,0.0240
2824.00,0.0240
2823.00,0.0239
2822.00,0.0239
2821.00,0.0239
2820.00,0.0239
2819.00,0.0239
2818.00,0.0238
2817.00,0.0238
2816.00,0.0237
2815.00,0.0237
2814.00,0.0237
2813.00,0.0237
2812.00,0.0236
2811.00,0.0236
2810.00,0.0236
2809.00,0.0235
2808.00,0.0235
2807.00,0.0235
2806.00,0.0235
2805.00,0.0234
2804.00,0.0234
2803.00,0.0234
2802.00,0.0234
2801.00,0.0233
2800.00,0.0233
2799.00,0.0232
2798.00,0.0232
2797.00,0.0231
2796.00,0.0231
2795.00,0.0231
2794.00,0.0230
2793.00,0.0230
2792.00,0.0230
2791.00,0.0230
2790.00,0.0230
2789.00,0.0230
2788.00,0.0230
2787.00,0.0230
2786.00,0.0229
2785.00,0.0229
2784.00,0.0228
2783.00,0.0228
2782.00,0.0227
2781.00,0.0227
2780.00,0.0226
2779.00,0.0226
2778.00,0.0226
2777.00,0.0226
2776.00,0.0226
2775.00,0.0226
2774.00,0.0226
2773.00,0.0225
2772.00,0.0225
2771.00,0.0225
2770.00,0.0224
2769.00,0.0224
2768.00,0.0224
2767.00,0.0224
2766.00,0.0223
2765.00,0.0223
2764.00,0.0223
2763.00,0.0223
2762.00,0.0222
2761.00,0.0222
2760.00,0.0221
2759.00,0.0221
2758.00,0.0221
2757.00,0.0221
2756.00,0.0221
2755.00,0.0221
2754.00,0.0221
2753.00,0.0221
2752.00,0.0220
2751.00,0.0220
2750.00,0.0220
2749.00,0.0220
2748.00,0.0220
2747.00,0.0220
2746.00,0.0219
2745.00,0.0218
2744.00,0.0217
2743.00,0.0217
2742.00,0.0217
2741.00,0.0217
2740.00,0.0217
2739.00,0.0216
2738.00,0.0216
2737.00,0.0215
2736.00,0.0215
2735.00,0.0215
2734.00,0.0214
2733.00,0.0214
2732.00,0.0214
2731.00,0.0214
2730.00,0.0214
2729.00,0.0214
2728.00,0.0214
2727.00,0.0214
2726.00,0.0213
2725.00,0.0213
2724.00,0.0213
2723.00,0.0213
2722.00,0.0213
2721.00,0.0212
2720.00,0.0212
2719.00,0.0211
2718.00,0.0211
2717.00,0.0211
2716.00,0.0211
2715.00,0.0211
2714.00,0.0211
2713.00,0.0211
2712.00,0.0210
2711.00,0.0210
2710.00,0.0210
2709.00,0.0210
2708.00,0.0210
2707.00,0.0209
2706.00,0.0209
2705.00,0.0208
2704.00,0.0208
2703.00,0.0208
2702.00,0.0208
2701.00,0.0208
2700.00,0.0207
2699.00,0.0207
2698.00,0.0206
2697.00,0.0206
2696.00,0.0206
2695.00,0.0206
2694.00,0.0206
2693.00,0.0206
2692.00,0.0205
2691.00,0.0205
2690.00,0.0205
2689.00,0.0205
2688.00,0.0205
2687.00,0.0205
2686.00,0.0205
2685.00,0.0204
2684.00,0.0204
2683.00,0.0203
2682.00,0.0203
2681.00,0.0203
2680.00,0.0203
2679.00,0.0203
2678.00,0.0203
2677.00,0.0203
2676.00,0.0203
2675.00,0.0202
2674.00,0.0202
2673.00,0.0202
2672.00,0.0202
2671.00,0.0201
2670.00,0.0201
2669.00,0.0200
2668.00,0.0200
2667.00,0.0200
2666.00,0.0200
2665.00,0.0200
2664.00,0.0200
2663.00,0.0200
2662.00,0.0200
2661.00,0.0201
2660.00,0.0201
2659.00,0.0201
2658.00,0.0201
2657.00,0.0201
2656.00,0.0200
2655.00,0.0201
2654.00,0.0201
2653.00,0.0201
2652.00,0.0201
2651.00,0.0201
2650.00,0.0201
2649.00,0.0201
2648.00,0.0201
2647.00,0.0201
2646.00,0.0201
2645.00,0.0201
2644.00,0.0201
2643.00,0.0201
2642.00,0.0201
2641.00,0.0201
2640.00,0.0201
2639.00,0.0200
2638.00,0.0200
2637.00,0.0199
2636.00,0.0199
2635.00,0.0199
2634.00,0.0199
2633.00,0.0199
2632.00,0.0199
2631.00,0.0199
2630.00,0.0199
2629.00,0.0199
2628.00,0.0199
2627.00,0.0199
2626.00,0.0199
2625.00,0.0199
2624.00,0.0199
2623.00,0.0198
2622.00,0.0198
2621.00,0.0198
2620.00,0.0198
2619.00,0.0198
2618.00,0.0198
2617.00,0.0199
2616.00,0.0199
2615.00,0.0198
2614.00,0.0198
2613.00,0.0198
2612.00,0.0198
2611.00,0.0197
2610.00,0.0197
2609.00,0.0197
2608.00,0.0197
2607.00,0.0197
2606.00,0.0197
2605.00,0.0196
2604.00,0.0196
2603.00,0.0197
2602.00,0.0197
2601.00,0.0197
2600.00,0.0197
2599.00,0.0197
2598.00,0.0196
2597.00,0.0196
2596.00,0.0196
2595.00,0.0196
2594.00,0.0196
2593.00,0.0196
2592.00,0.0196
2591.00,0.0197
2590.00,0.0196
2589.00,0.0196
2588.00,0.0196
2587.00,0.0195
2586.00,0.0195
2585.00,0.0195
2584.00,0.0195
2583.00,0.0196
2582.00,0.0196
2581.00,0.0195
2580.00,0.0195
2579.00,0.0194
2578.00,0.0194
2577.00,0.0194
2576.00,0.0195
2575.00,0.0195
2574.00,0.0194
2573.00,0.0194
2572.00,0.0194
2571.00,0.0193
2570.00,0.0193
2569.00,0.0193
2568.00,0.0193
2567.00,0.0193
2566.00,0.0193
2565.00,0.0194
2564.00,0.0194
2563.00,0.0194
2562.00,0.0194
2561.00,0.0193
2560.00,0.0193
2559.00,0.0193
2558.00,0.0193
2557.00,0.0193
2556.00,0.0193
2555.00,0.0193
2554.00,0.0193
2553.00,0.0193
2552.00,0.0193
2551.00,0.0193
2550.00,0.0193
2549.00,0.0193
2548.00,0.0192
2547.00,0.0191
2546.00,0.0191
2545.00,0.0191
2544.00,0.0191
2543.00,0.0192
2542.00,0.0192
2541.00,0.0193
2540.00,0.0193
2539.00,0.0193
2538.00,0.0192
2537.00,0.0192
2536.00,0.0192
2535.00,0.0192
2534.00,0.0192
2533.00,0.0192
2532.00,0.0191
2531.00,0.0191
2530.00,0.0191
2529.00,0.0192
2528.00,0.0192
2527.00,0.0191
2526.00,0.0191
2525.00,0.0191
2524.00,0.0191
2523.00,0.0190
2522.00,0.0190
2521.00,0.0190
2520.00,0.0191
2519.00,0.0190
2518.00,0.0189
2517.00,0.0188
2516.00,0.0188
2515.00,0.0187
2514.00,0.0188
2513.00,0.0188
2512.00,0.0189
2511.00,0.0190
2510.00,0.0190
2509.00,0.0189
2508.00,0.0188
2507.00,0.0188
2506.00,0.0187
2505.00,0.0187
2504.00,0.0188
2503.00,0.0188
2502.00,0.0189
2501.00,0.0189
2500.00,0.0189
2499.00,0.0189
2498.00,0.0188
2497.00,0.0188
2496.00,0.0187
2495.00,0.0187
2494.00,0.0187
2493.00,0.0186
2492.00,0.0186
2491.00,0.0186
2490.00,0.0186
2489.00,0.0186
2488.00,0.0186
2487.00,0.0186
2486.00,0.0186
2485.00,0.0185
2484.00,0.0185
2483.00,0.0185
2482.00,0.0185
2481.00,0.0186
2480.00,0.0186
2479.00,0.0185
2478.00,0.0185
2477.00,0.0184
2476.00,0.0184
2475.00,0.0184
2474.00,0.0185
2473.00,0.0185
2472.00,0.0185
2471.00,0.0185
2470.00,0.0185
2469.00,0.0185
2468.00,0.0184
2467.00,0.0184
2466.00,0.0183
2465.00,0.0183
2464.00,0.0183
2463.00,0.0183
2462.00,0.0183
2461.00,0.0183
2460.00,0.0183
2459.00,0.0183
2458.00,0.0183
2457.00,0.0183
2456.00,0.0183
2455.00,0.0182
2454.00,0.0182
2453.00,0.0182
2452.00,0.0182
2451.00,0.0182
2450.00,0.0182
2449.00,0.0182
2448.00,0.0182
2447.00,0.0182
2446.00,0.0181
2445.00,0.0181
2444.00,0.0180
2443.00,0.0180
2442.00,0.0179
2441.00,0.0179
2440.00,0.0179
2439.00,0.0179
2438.00,0.0179
2437.00,0.0178
2436.00,0.0178
2435.00,0.0178
2434.00,0.0178
2433.00,0.0178
2432.00,0.0178
2431.00,0.0178
2430.00,0.0178
2429.00,0.0179
2428.00,0.0179
2427.00,0.0178
2426.00,0.0178
2425.00,0.0178
2424.00,0.0178
2423.00,0.0177
2422.00,0.0177
2421.00,0.0176
2420.00,0.0176
2419.00,0.0175
2418.00,0.0175
2417.00,0.0175
2416.00,0.0175
2415.00,0.0175
2414.00,0.0175
2413.00,0.0175
2412.00,0.0176
2411.00,0.0175
2410.00,0.0175
2409.00,0.0174
2408.00,0.0174
2407.00,0.0174
2406.00,0.0174
2405.00,0.0174
2404.00,0.0174
2403.00,0.0174
2402.00,0.0174
2401.00,0.0173
2400.00,0.0172
2399.00,0.0171
2398.00,0.0171
2397.00,0.0171
2396.00,0.0171
2395.00,0.0171
2394.00,0.0171
2393.00,0.0171
2392.00,0.0171
2391.00,0.0171
2390.00,0.0170
2389.00,0.0170
2388.00,0.0170
2387.00,0.0170
2386.00,0.0169
2385.00,0.0169
2384.00,0.0168
2383.00,0.0166
2382.00,0.0164
2381.00,0.0162
2380.00,0.0160
2379.00,0.0158
2378.00,0.0157
2377.00,0.0156
2376.00,0.0155
2375.00,0.0156
2374.00,0.0156
2373.00,0.0157
2372.00,0.0159
2371.00,0.0159
2370.00,0.0159
2369.00,0.0158
2368.00,0.0158
2367.00,0.0157
2366.00,0.0156
2365.00,0.0155
2364.00,0.0154
2363.00,0.0153
2362.00,0.0155
2361.00,0.0156
2360.00,0.0157
2359.00,0.0155
2358.00,0.0154
2357.00,0.0154
2356.00,0.0156
2355.00,0.0159
2354.00,0.0160
2353.00,0.0161
2352.00,0.0161
2351.00,0.0160
2350.00,0.0159
2349.00,0.0156
2348.00,0.0151
2347.00,0.0144
2346.00,0.0141
2345.00,0.0141
2344.00,0.0145
2343.00,0.0148
2342.00,0.0150
2341.00,0.0151
2340.00,0.0152
2339.00,0.0154
2338.00,0.0155
2337.00,0.0156
2336.00,0.0158
2335.00,0.0158
2334.00,0.0158
2333.00,0.0158
2332.00,0.0157
2331.00,0.0158
2330.00,0.0159
2329.00,0.0162
2328.00,0.0165
2327.00,0.0166
2326.00,0.0167
2325.00,0.0166
2324.00,0.0165
2323.00,0.0164
2322.00,0.0164
2321.00,0.0163
2320.00,0.0163
2319.00,0.0163
2318.00,0.0164
2317.00,0.0164
2316.00,0.0164
2315.00,0.0163
2314.00,0.0162
2313.00,0.0161
2312.00,0.0160
2311.00,0.0160
2310.00,0.0159
2309.00,0.0158
2308.00,0.0158
2307.00,0.0158
2306.00,0.0158
2305.00,0.0158
2304.00,0.0159
2303.00,0.0159
2302.00,0.0159
2301.00,0.0158
2300.00,0.0158
2299.00,0.0157
2298.00,0.0157
2297.00,0.0157
2296.00,0.0156
2295.00,0.0156
2294.00,0.0156
2293.00,0.0156
2292.00,0.0157
2291.00,0.0157
2290.00,0.0157
2289.00,0.0157
2288.00,0.0158
2287.00,0.0158
2286.00,0.0158
2285.00,0.0158
2284.00,0.0158
2283.00,0.0158
2282.00,0.0158
2281.00,0.0158
2280.00,0.0158
2279.00,0.0158
2278.00,0.0157
2277.00,0.0156
2276.00,0.0156
2275.00,0.0156
2274.00,0.0157
2273.00,0.0157
2272.00,0.0157
2271.00,0.0156
2270.00,0.0155
2269.00,0.0154
2268.00,0.0154
2267.00,0.0154
2266.00,0.0154
2265.00,0.0154
2264.00,0.0153
2263.00,0.0153
2262.00,0.0153
2261.00,0.0153
2260.00,0.0154
2259.00,0.0155
2258.00,0.0155
2257.00,0.0156
2256.00,0.0155
2255.00,0.0154
2254.00,0.0153
2253.00,0.0152
2252.00,0.0151
2251.00,0.0152
2250.00,0.0152
2249.00,0.0152
2248.00,0.0152
2247.00,0.0151
2246.00,0.0151
2245.00,0.0150
2244.00,0.0151
2243.00,0.0151
2242.00,0.0152
2241.00,0.0152
2240.00,0.0153
2239.00,0.0152
2238.00,0.0152
2237.00,0.0151
2236.00,0.0151
2235.00,0.0151
2234.00,0.0151
2233.00,0.0151
2232.00,0.0151
2231.00,0.0151
2230.00,0.0151
2229.00,0.0151
2228.00,0.0151
2227.00,0.0151
2226.00,0.0151
2225.00,0.0151
2224.00,0.0151
2223.00,0.0151
2222.00,0.0151
2221.00,0.0152
2220.00,0.0152
2219.00,0.0151
2218.00,0.0151
2217.00,0.0152
2216.00,0.0153
2215.00,0.0153
2214.00,0.0153
2213.00,0.0153
2212.00,0.0151
2211.00,0.0150
2210.00,0.0148
2209.00,0.0147
2208.00,0.0148
2207.00,0.0149
2206.00,0.0151
2205.00,0.0152
2204.00,0.0153
2203.00,0.0153
2202.00,0.0152
2201.00,0.0150
2200.00,0.0149
2199.00,0.0148
2198.00,0.0148
2197.00,0.0149
2196.00,0.0150
2195.00,0.0150
2194.00,0.0149
2193.00,0.0148
2192.00,0.0147
2191.00,0.0146
2190.00,0.0147
2189.00,0.0149
2188.00,0.0150
2187.00,0.0150
2186.00,0.0149
2185.00,0.0149
2184.00,0.0150
2183.00,0.0151
2182.00,0.0151
2181.00,0.0152
2180.00,0.0153
2179.00,0.0152
2178.00,0.0150
2177.00,0.0148
2176.00,0.0147
2175.00,0.0147
2174.00,0.0149
2173.00,0.0151
2172.00,0.0151
2171.00,0.0149
2170.00,0.0146
2169.00,0.0143
2168.00,0.0143
2167.00,0.0144
2166.00,0.0146
2165.00,0.0148
2164.00,0.0149
2163.00,0.0150
2162.00,0.0149
2161.00,0.0146
2160.00,0.0141
2159.00,0.0136
2158.00,0.0133
2157.00,0.0134
2156.00,0.0137
2155.00,0.0140
2154.00,0.0143
2153.00,0.0144
2152.00,0.0143
2151.00,0.0142
2150.00,0.0141
2149.00,0.0140
2148.00,0.0139
2147.00,0.0138
2146.00,0.0137
2145.00,0.0137
2144.00,0.0137
2143.00,0.0137
2142.00,0.0136
2141.00,0.0136
2140.00,0.0136
2139.00,0.0135
2138.00,0.0135
2137.00,0.0135
2136.00,0.0133
2135.00,0.0132
2134.00,0.0131
2133.00,0.0131
2132.00,0.0131
2131.00,0.0132
2130.00,0.0133
2129.00,0.0133
2128.00,0.0133
2127.00,0.0132
2126.00,0.0131
2125.00,0.0131
2124.00,0.0131
2123.00,0.0132
2122.00,0.0133
2121.00,0.0134
2120.00,0.0136
2119.00,0.0137
2118.00,0.0137
2117.00,0.0138
2116.00,0.0137
2115.00,0.0137
2114.00,0.0137
2113.00,0.0136
2112.00,0.0135
2111.00,0.0134
2110.00,0.0133
2109.00,0.0133
2108.00,0.0133
2107.00,0.0134
2106.00,0.0134
2105.00,0.0134
2104.00,0.0134
2103.00,0.0134
2102.00,0.0133
2101.00,0.0132
2100.00,0.0132
2099.00,0.0132
2098.00,0.0132
2097.00,0.0132
2096.00,0.0132
2095.00,0.0132
2094.00,0.0132
2093.00,0.0132
2092.00,0.0132
2091.00,0.0132
2090.00,0.0132
2089.00,0.0132
2088.00,0.0131
2087.00,0.0131
2086.00,0.0131
2085.00,0.0132
2084.00,0.0132
2083.00,0.0132
2082.00,0.0131
2081.00,0.0131
2080.00,0.0131
2079.00,0.0131
2078.00,0.0131
2077.00,0.0131
2076.00,0.0132
2075.00,0.0132
2074.00,0.0131
2073.00,0.0130
2072.00,0.0129
2071.00,0.0128
2070.00,0.0128
2069.00,0.0129
2068.00,0.0129
2067.00,0.0131
2066.00,0.0132
2065.00,0.0133
2064.00,0.0132
2063.00,0.0132
2062.00,0.0131
2061.00,0.0131
2060.00,0.0131
2059.00,0.0131
2058.00,0.0131
2057.00,0.0131
2056.00,0.0130
2055.00,0.0129
2054.00,0.0128
2053.00,0.0128
2052.00,0.0128
2051.00,0.0129
2050.00,0.0130
2049.00,0.0131
2048.00,0.0132
2047.00,0.0133
2046.00,0.0133
2045.00,0.0133
2044.00,0.0132
2043.00,0.0130
2042.00,0.0129
2041.00,0.0129
2040.00,0.0130
2039.00,0.0131
2038.00,0.0132
2037.00,0.0132
2036.00,0.0131
2035.00,0.0130
2034.00,0.0129
2033.00,0.0129
2032.00,0.0129
2031.00,0.0128
2030.00,0.0128
2029.00,0.0128
2028.00,0.0127
2027.00,0.0124
2026.00,0.0122
2025.00,0.0121
2024.00,0.0122
2023.00,0.0123
2022.00,0.0125
2021.00,0.0127
2020.00,0.0127
2019.00,0.0126
2018.00,0.0124
2017.00,0.0123
2016.00,0.0123
2015.00,0.0124
2014.00,0.0125
2013.00,0.0124
2012.00,0.0123
2011.00,0.0121
2010.00,0.0119
2009.00,0.0118
2008.00,0.0117
2007.00,0.0115
2006.00,0.0115
2005.00,0.0116
2004.00,0.0117
2003.00,0.0117
2002.00,0.0117
2001.00,0.0118
2000.00,0.0120
1999.00,0.0122
1998.00,0.0124
1997.00,0.0125
1996.00,0.0126
1995.00,0.0126
1994.00,0.0126
1993.00,0.0126
1992.00,0.0125
1991.00,0.0123
1990.00,0.0121
1989.00,0.0120
1988.00,0.0119
1987.00,0.0118
1986.00,0.0117
1985.00,0.0117
1984.00,0.0117
1983.00,0.0118
1982.00,0.0120
1981.00,0.0121
1980.00,0.0122
1979.00,0.0123
1978.00,0.0123
1977.00,0.0123
1976.00,0.0123
1975.00,0.0121
1974.00,0.0119
1973.00,0.0118
1972.00,0.0117
1971.00,0.0118
1970.00,0.0119
1969.00,0.0119
1968.00,0.0118
1967.00,0.0116
1966.00,0.0114
1965.00,0.0113
1964.00,0.0114
1963.00,0.0115
1962.00,0.0115
1961.00,0.0116
1960.00,0.0115
1959.00,0.0114
1958.00,0.0112
1957.00,0.0110
1956.00,0.0108
1955.00,0.0106
1954.00,0.0106
1953.00,0.0107
1952.00,0.0108
1951.00,0.0108
1950.00,0.0108
1949.00,0.0108
1948.00,0.0108
1947.00,0.0108
1946.00,0.0109
1945.00,0.0110
1944.00,0.0110
1943.00,0.0109
1942.00,0.0108
1941.00,0.0108
1940.00,0.0108
1939.00,0.0108
1938.00,0.0107
1937.00,0.0106
1936.00,0.0105
1935.00,0.0105
1934.00,0.0105
1933.00,0.0105
1932.00,0.0105
1931.00,0.0106
1930.00,0.0106
1929.00,0.0106
1928.00,0.0105
1927.00,0.0105
1926.00,0.0106
1925.00,0.0108
1924.00,0.0109
1923.00,0.0108
1922.00,0.0106
1921.00,0.0105
1920.00,0.0105
1919.00,0.0104
1918.00,0.0102
1917.00,0.0101
1916.00,0.0100
1915.00,0.0100
1914.00,0.0100
1913.00,0.0101
1912.00,0.0101
1911.00,0.0100
1910.00,0.0099
1909.00,0.0098
1908.00,0.0098
1907.00,0.0098
1906.00,0.0098
1905.00,0.0098
1904.00,0.0097
1903.00,0.0096
1902.00,0.0095
1901.00,0.0095
1900.00,0.0095
1899.00,0.0095
1898.00,0.0096
1897.00,0.0097
1896.00,0.0097
1895.00,0.0096
1894.00,0.0096
1893.00,0.0096
1892.00,0.0096
1891.00,0.0096
1890.00,0.0094
1889.00,0.0093
1888.00,0.0092
1887.00,0.0092
1886.00,0.0092
1885.00,0.0093
1884.00,0.0092
1883.00,0.0092
1882.00,0.0091
1881.00,0.0091
1880.00,0.0090
1879.00,0.0089
1878.00,0.0088
1877.00,0.0088
1876.00,0.0087
1875.00,0.0087
1874.00,0.0087
1873.00,0.0089
1872.00,0.0091
1871.00,0.0093
1870.00,0.0091
1869.00,0.0089
1868.00,0.0086
1867.00,0.0085
1866.00,0.0085
1865.00,0.0085
1864.00,0.0085
1863.00,0.0085
1862.00,0.0084
1861.00,0.0083
1860.00,0.0083
1859.00,0.0083
1858.00,0.0083
1857.00,0.0084
1856.00,0.0084
1855.00,0.0084
1854.00,0.0083
1853.00,0.0082
1852.00,0.0081
1851.00,0.0081
1850.00,0.0081
1849.00,0.0081
1848.00,0.0082
1847.00,0.0083
1846.00,0.0083
1845.00,0.0080
1844.00,0.0077
1843.00,0.0074
1842.00,0.0075
1841.00,0.0077
1840.00,0.0078
1839.00,0.0078
1838.00,0.0077
1837.00,0.0077
1836.00,0.0077
1835.00,0.0077
1834.00,0.0078
1833.00,0.0080
1832.00,0.0082
1831.00,0.0081
1830.00,0.0079
1829.00,0.0077
1828.00,0.0077
1827.00,0.0078
1826.00,0.0078
1825.00,0.0076
1824.00,0.0075
1823.00,0.0074
1822.00,0.0073
1821.00,0.0073
1820.00,0.0073
1819.00,0.0073
1818.00,0.0073
1817.00,0.0072
1816.00,0.0073
1815.00,0.0073
1814.00,0.0073
1813.00,0.0073
1812.00,0.0073
1811.00,0.0073
1810.00,0.0072
1809.00,0.0071
1808.00,0.0071
1807.00,0.0071
1806.00,0.0072
1805.00,0.0074
1804.00,0.0076
1803.00,0.0077
1802.00,0.0077
1801.00,0.0076
1800.00,0.0075
1799.00,0.0075
1798.00,0.0075
1797.00,0.0077
1796.00,0.0079
1795.00,0.0080
1794.00,0.0081
1793.00,0.0080
1792.00,0.0078
1791.00,0.0078
1790.00,0.0078
1789.00,0.0080
1788.00,0.0082
1787.00,0.0083
1786.00,0.0083
1785.00,0.0084
1784.00,0.0085
1783.00,0.0087
1782.00,0.0090
1781.00,0.0091
1780.00,0.0091
1779.00,0.0092
1778.00,0.0094
1777.00,0.0096
1776.00,0.0099
1775.00,0.0103
1774.00,0.0105
1773.00,0.0104
1772.00,0.0102
1771.00,0.0103
1770.00,0.0104
1769.00,0.0106
1768.00,0.0107
1767.00,0.0108
1766.00,0.0110
1765.00,0.0113
1764.00,0.0117
1763.00,0.0119
1762.00,0.0119
1761.00,0.0119
1760.00,0.0121
1759.00,0.0124
1758.00,0.0127
1757.00,0.0128
1756.00,0.0129
1755.00,0.0131
1754.00,0.0134
1753.00,0.0137
1752.00,0.0140
1751.00,0.0143
1750.00,0.0146
1749.00,0.0150
1748.00,0.0153
1747.00,0.0157
1746.00,0.0160
1745.00,0.0163
1744.00,0.0166
1743.00,0.0169
1742.00,0.0171
1741.00,0.0172
1740.00,0.0173
1739.00,0.0175
1738.00,0.0178
1737.00,0.0182
1736.00,0.0185
1735.00,0.0186
1734.00,0.0186
1733.00,0.0189
1732.00,0.0194
1731.00,0.0198
1730.00,0.0202
1729.00,0.0204
1728.00,0.0206
1727.00,0.0208
1726.00,0.0210
1725.00,0.0212
1724.00,0.0215
1723.00,0.0217
1722.00,0.0219
1721.00,0.0223
1720.00,0.0226
1719.00,0.0226
1718.00,0.0224
1717.00,0.0225
1716.00,0.0227
1715.00,0.0229
1714.00,0.0231
1713.00,0.0232
1712.00,0.0234
1711.00,0.0235
1710.00,0.0236
1709.00,0.0239
1708.00,0.0242
1707.00,0.0244
1706.00,0.0246
1705.00,0.0247
1704.00,0.0249
1703.00,0.0251
1702.00,0.0252
1701.00,0.0251
1700.00,0.0249
1699.00,0.0249
1698.00,0.0251
1697.00,0.0254
1696.00,0.0255
1695.00,0.0253
1694.00,0.0253
1693.00,0.0255
1692.00,0.0257
1691.00,0.0259
1690.00,0.0260
1689.00,0.0262
1688.00,0.0264
1687.00,0.0267
1686.00,0.0269
1685.00,0.0269
1684.00,0.0270
1683.00,0.0273
1682.00,0.0274
1681.00,0.0276
1680.00,0.0278
1679.00,0.0279
1678.00,0.0280
1677.00,0.0281
1676.00,0.0282
1675.00,0.0284
1674.00,0.0287
1673.00,0.0290
1672.00,0.0294
1671.00,0.0297
1670.00,0.0300
1669.00,0.0303
1668.00,0.0305
1667.00,0.0306
1666.00,0.0308
1665.00,0.0310
1664.00,0.0312
1663.00,0.0314
1662.00,0.0317
1661.00,0.0319
1660.00,0.0321
1659.00,0.0323
1658.00,0.0325
1657.00,0.0327
1656.00,0.0332
1655.00,0.0336
1654.00,0.0340
1653.00,0.0346
1652.00,0.0348
1651.00,0.0348
1650.00,0.0350
1649.00,0.0353
1648.00,0.0355
1647.00,0.0358
1646.00,0.0363
1645.00,0.0366
1644.00,0.0368
1643.00,0.0369
1642.00,0.0371
1641.00,0.0374
1640.00,0.0376
1639.00,0.0378
1638.00,0.0381
1637.00,0.0385
1636.00,0.0391
1635.00,0.0398
1634.00,0.0400
1633.00,0.0401
1632.00,0.0403
1631.00,0.0405
1630.00,0.0407
1629.00,0.0411
1628.00,0.0415
1627.00,0.0418
1626.00,0.0421
1625.00,0.0423
1624.00,0.0426
1623.00,0.0430
1622.00,0.0433
1621.00,0.0435
1620.00,0.0436
1619.00,0.0437
1618.00,0.0439
1617.00,0.0442
1616.00,0.0446
1615.00,0.0449
1614.00,0.0451
1613.00,0.0453
1612.00,0.0454
1611.00,0.0455
1610.00,0.0458
1609.00,0.0461
1608.00,0.0463
1607.00,0.0466
1606.00,0.0467
1605.00,0.0469
1604.00,0.0470
1603.00,0.0473
1602.00,0.0475
1601.00,0.0477
1600.00,0.0479
1599.00,0.0480
1598.00,0.0482
1597.00,0.0483
1596.00,0.0485
1595.00,0.0487
1594.00,0.0488
1593.00,0.0489
1592.00,0.0491
1591.00,0.0492
1590.00,0.0494
1589.00,0.0496
1588.00,0.0496
1587.00,0.0497
1586.00,0.0498
1585.00,0.0499
1584.00,0.0500
1583.00,0.0501
1582.00,0.0503
1581.00,0.0504
1580.00,0.0504
1579.00,0.0505
1578.00,0.0506
1577.00,0.0507
1576.00,0.0509
1575.00,0.0511
1574.00,0.0511
1573.00,0.0510
1572.00,0.0509
1571.00,0.0509
1570.00,0.0510
1569.00,0.0512
1568.00,0.0511
1567.00,0.0510
1566.00,0.0509
1565.00,0.0507
1564.00,0.0506
1563.00,0.0505
1562.00,0.0504
1561.00,0.0503
1560.00,0.0501
1559.00,0.0506
1558.00,0.0510
1557.00,0.0505
1556.00,0.0499
1555.00,0.0495
1554.00,0.0492
1553.00,0.0489
1552.00,0.0488
1551.00,0.0487
1550.00,0.0485
1549.00,0.0482
1548.00,0.0478
1547.00,0.0474
1546.00,0.0471
1545.00,0.0468
1544.00,0.0466
1543.00,0.0464
1542.00,0.0459
1541.00,0.0455
1540.00,0.0456
1539.00,0.0456
1538.00,0.0452
1537.00,0.0447
1536.00,0.0444
1535.00,0.0442
1534.00,0.0440
1533.00,0.0439
1532.00,0.0437
1531.00,0.0432
1530.00,0.0427
1529.00,0.0424
1528.00,0.0421
1527.00,0.0418
1526.00,0.0415
1525.00,0.0413
1524.00,0.0410
1523.00,0.0407
1522.00,0.0403
1521.00,0.0402
1520.00,0.0402
1519.00,0.0401
1518.00,0.0400
1517.00,0.0398
1516.00,0.0395
1515.00,0.0390
1514.00,0.0385
1513.00,0.0382
1512.00,0.0380
1511.00,0.0380
1510.00,0.0381
1509.00,0.0381
1508.00,0.0380
1507.00,0.0378
1506.00,0.0374
1505.00,0.0368
1504.00,0.0364
1503.00,0.0362
1502.00,0.0360
1501.00,0.0358
1500.00,0.0357
1499.00,0.0355
1498.00,0.0353
1497.00,0.0352
1496.00,0.0353
1495.00,0.0354
1494.00,0.0355
1493.00,0.0355
1492.00,0.0356
1491.00,0.0357
1490.00,0.0359
1489.00,0.0362
1488.00,0.0363
1487.00,0.0362
1486.00,0.0360
1485.00,0.0358
1484.00,0.0358
1483.00,0.0358
1482.00,0.0358
1481.00,0.0359
1480.00,0.0360
1479.00,0.0361
1478.00,0.0361
1477.00,0.0363
1476.00,0.0364
1475.00,0.0364
1474.00,0.0363
1473.00,0.0364
1472.00,0.0367
1471.00,0.0368
1470.00,0.0368
1469.00,0.0368
1468.00,0.0369
1467.00,0.0370
1466.00,0.0372
1465.00,0.0373
1464.00,0.0375
1463.00,0.0375
1462.00,0.0376
1461.00,0.0376
1460.00,0.0378
1459.00,0.0378
1458.00,0.0378
1457.00,0.0380
1456.00,0.0383
1455.00,0.0385
1454.00,0.0386
1453.00,0.0388
1452.00,0.0389
1451.00,0.0391
1450.00,0.0393
1449.00,0.0396
1448.00,0.0398
1447.00,0.0400
1446.00,0.0400
1445.00,0.0400
1444.00,0.0401
1443.00,0.0402
1442.00,0.0402
1441.00,0.0402
1440.00,0.0403
1439.00,0.0404
1438.00,0.0405
1437.00,0.0408
1436.00,0.0412
1435.00,0.0414
1434.00,0.0415
1433.00,0.0416
1432.00,0.0417
1431.00,0.0419
1430.00,0.0420
1429.00,0.0421
1428.00,0.0422
1427.00,0.0422
1426.00,0.0423
1425.00,0.0423
1424.00,0.0425
1423.00,0.0426
1422.00,0.0426
1421.00,0.0426
1420.00,0.0427
1419.00,0.0431
1418.00,0.0434
1417.00,0.0435
1416.00,0.0435
1415.00,0.0435
1414.00,0.0435
1413.00,0.0436
1412.00,0.0437
1411.00,0.0439
1410.00,0.0439
1409.00,0.0439
1408.00,0.0440
1407.00,0.0441
1406.00,0.0443
1405.00,0.0445
1404.00,0.0446
1403.00,0.0447
1402.00,0.0447
1401.00,0.0448
1400.00,0.0450
1399.00,0.0452
1398.00,0.0455
1397.00,0.0457
1396.00,0.0459
1395.00,0.0461
1394.00,0.0462
1393.00,0.0462
1392.00,0.0461
1391.00,0.0461
1390.00,0.0462
1389.00,0.0463
1388.00,0.0466
1387.00,0.0469
1386.00,0.0472
1385.00,0.0473
1384.00,0.0473
1383.00,0.0473
1382.00,0.0474
1381.00,0.0474
1380.00,0.0475
1379.00,0.0476
1378.00,0.0476
1377.00,0.0476
1376.00,0.0477
1375.00,0.0478
1374.00,0.0479
1373.00,0.0479
1372.00,0.0478
1371.00,0.0477
1370.00,0.0477
1369.00,0.0477
1368.00,0.0477
1367.00,0.0476
1366.00,0.0475
1365.00,0.0474
1364.00,0.0475
1363.00,0.0475
1362.00,0.0476
1361.00,0.0475
1360.00,0.0474
1359.00,0.0472
1358.00,0.0471
1357.00,0.0469
1356.00,0.0468
1355.00,0.0467
1354.00,0.0466
1353.00,0.0464
1352.00,0.0463
1351.00,0.0461
1350.00,0.0460
1349.00,0.0458
1348.00,0.0457
1347.00,0.0456
1346.00,0.0455
1345.00,0.0454
1344.00,0.0453
1343.00,0.0451
1342.00,0.0451
1341.00,0.0451
1340.00,0.0451
1339.00,0.0451
1338.00,0.0451
1337.00,0.0449
1336.00,0.0447
1335.00,0.0445
1334.00,0.0443
1333.00,0.0441
1332.00,0.0440
1331.00,0.0439
1330.00,0.0438
1329.00,0.0437
1328.00,0.0436
1327.00,0.0435
1326.00,0.0434
1325.00,0.0434
1324.00,0.0433
1323.00,0.0432
1322.00,0.0432
1321.00,0.0431
1320.00,0.0431
1319.00,0.0431
1318.00,0.0431
1317.00,0.0431
1316.00,0.0432
1315.00,0.0432
1314.00,0.0432
1313.00,0.0432
1312.00,0.0431
1311.00,0.0431
1310.00,0.0430
1309.00,0.0430
1308.00,0.0430
1307.00,0.0431
1306.00,0.0431
1305.00,0.0430
1304.00,0.0430
1303.00,0.0430
1302.00,0.0429
1301.00,0.0429
1300.00,0.0429
1299.00,0.0429
1298.00,0.0429
1297.00,0.0429
1296.00,0.0429
1295.00,0.0430
1294.00,0.0430
1293.00,0.0430
1292.00,0.0430
1291.00,0.0430
1290.00,0.0430
1289.00,0.0431
1288.00,0.0431
1287.00,0.0432
1286.00,0.0431
1285.00,0.0431
1284.00,0.0431
1283.00,0.0431
1282.00,0.0431
1281.00,0.0431
1280.00,0.0431
1279.00,0.0431
1278.00,0.0431
1277.00,0.0432
1276.00,0.0432
1275.00,0.0432
1274.00,0.0432
1273.00,0.0432
1272.00,0.0432
1271.00,0.0432
1270.00,0.0432
1269.00,0.0433
1268.00,0.0432
1267.00,0.0432
1266.00,0.0432
1265.00,0.0431
1264.00,0.0430
1263.00,0.0430
1262.00,0.0430
1261.00,0.0430
1260.00,0.0431
1259.00,0.0431
1258.00,0.0432
1257.00,0.0432
1256.00,0.0432
1255.00,0.0432
1254.00,0.0432
1253.00,0.0433
1252.00,0.0433
1251.00,0.0434
1250.00,0.0434
1249.00,0.0434
1248.00,0.0434
1247.00,0.0434
1246.00,0.0433
1245.00,0.0433
1244.00,0.0433
1243.00,0.0432
1242.00,0.0432
1241.00,0.0431
1240.00,0.0431
1239.00,0.0430
1238.00,0.0430
1237.00,0.0430
1236.00,0.0429
1235.00,0.0429
1234.00,0.0428
1233.00,0.0427
1232.00,0.0426
1231.00,0.0426
1230.00,0.0426
1229.00,0.0426
1228.00,0.0426
1227.00,0.0425
1226.00,0.0425
1225.00,0.0425
1224.00,0.0425
1223.00,0.0424
1222.00,0.0422
1221.00,0.0421
1220.00,0.0420
1219.00,0.0419
1218.00,0.0419
1217.00,0.0418
1216.00,0.0418
1215.00,0.0417
1214.00,0.0417
1213.00,0.0416
1212.00,0.0416
1211.00,0.0416
1210.00,0.0415
1209.00,0.0415
1208.00,0.0414
1207.00,0.0414
1206.00,0.0414
1205.00,0.0414
1204.00,0.0414
1203.00,0.0413
1202.00,0.0412
1201.00,0.0412
1200.00,0.0411
1199.00,0.0411
1198.00,0.0411
1197.00,0.0411
1196.00,0.0411
1195.00,0.0412
1194.00,0.0413
1193.00,0.0413
1192.00,0.0413
1191.00,0.0412
1190.00,0.0412
1189.00,0.0412
1188.00,0.0412
1187.00,0.0412
1186.00,0.0412
1185.00,0.0412
1184.00,0.0412
1183.00,0.0411
1182.00,0.0411
1181.00,0.0411
1180.00,0.0411
1179.00,0.0411
1178.00,0.0411
1177.00,0.0410
1176.00,0.0409
1175.00,0.0409
1174.00,0.0408
1173.00,0.0406
1172.00,0.0405
1171.00,0.0404
1170.00,0.0403
1169.00,0.0402
1168.00,0.0403
1167.00,0.0403
1166.00,0.0402
1165.00,0.0402
1164.00,0.0401
1163.00,0.0400
1162.00,0.0399
1161.00,0.0398
1160.00,0.0397
1159.00,0.0397
1158.00,0.0397
1157.00,0.0396
1156.00,0.0396
1155.00,0.0396
1154.00,0.0396
1153.00,0.0396
1152.00,0.0396
1151.00,0.0395
1150.00,0.0394
1149.00,0.0394
1148.00,0.0395
1147.00,0.0396
1146.00,0.0397
1145.00,0.0397
1144.00,0.0396
1143.00,0.0395
1142.00,0.0394
1141.00,0.0394
1140.00,0.0394
1139.00,0.0395
1138.00,0.0396
1137.00,0.0397
1136.00,0.0398
1135.00,0.0399
1134.00,0.0399
1133.00,0.0399
1132.00,0.0398
1131.00,0.0398
1130.00,0.0398
1129.00,0.0398
1128.00,0.0399
1127.00,0.0401
1126.00,0.0402
1125.00,0.0403
1124.00,0.0403
1123.00,0.0403
1122.00,0.0403
1121.00,0.0403
1120.00,0.0404
1119.00,0.0405
1118.00,0.0405
1117.00,0.0406
1116.00,0.0406
1115.00,0.0406
1114.00,0.0406
1113.00,0.0406
1112.00,0.0406
1111.00,0.0406
1110.00,0.0407
1109.00,0.0409
1108.00,0.0411
1107.00,0.0413
1106.00,0.0414
1105.00,0.0415
1104.00,0.0416
1103.00,0.0416
1102.00,0.0417
1101.00,0.0417
1100.00,0.0417
1099.00,0.0417
1098.00,0.0417
1097.00,0.0417
1096.00,0.0417
1095.00,0.0417
1094.00,0.0418
1093.00,0.0419
1092.00,0.0420
1091.00,0.0421
1090.00,0.0421
1089.00,0.0422
1088.00,0.0423
1087.00,0.0423
1086.00,0.0423
1085.00,0.0423
1084.00,0.0423
1083.00,0.0424
1082.00,0.0425
1081.00,0.0426
1080.00,0.0426
1079.00,0.0425
1078.00,0.0425
1077.00,0.0425
1076.00,0.0425
1075.00,0.0426
1074.00,0.0427
1073.00,0.0428
1072.00,0.0429
1071.00,0.0431
1070.00,0.0432
1069.00,0.0434
1068.00,0.0436
1067.00,0.0437
1066.00,0.0438
1065.00,0.0439
1064.00,0.0440
1063.00,0.0441
1062.00,0.0442
1061.00,0.0443
1060.00,0.0444
1059.00,0.0445
1058.00,0.0447
1057.00,0.0448
1056.00,0.0448
1055.00,0.0449
1054.00,0.0449
1053.00,0.0450
1052.00,0.0452
1051.00,0.0455
1050.00,0.0457
1049.00,0.0459
1048.00,0.0460
1047.00,0.0460
1046.00,0.0460
1045.00,0.0460
1044.00,0.0460
1043.00,0.0461
1042.00,0.0462
1041.00,0.0463
1040.00,0.0463
1039.00,0.0464
1038.00,0.0464
1037.00,0.0465
1036.00,0.0465
1035.00,0.0466
1034.00,0.0466
1033.00,0.0466
1032.00,0.0465
1031.00,0.0464
1030.00,0.0462
1029.00,0.0461
1028.00,0.0459
1027.00,0.0458
1026.00,0.0456
1025.00,0.0454
1024.00,0.0453
1023.00,0.0453
1022.00,0.0453
1021.00,0.0453
1020.00,0.0453
1019.00,0.0452
1018.00,0.0451
1017.00,0.0450
1016.00,0.0450
1015.00,0.0450
1014.00,0.0451
1013.00,0.0452
1012.00,0.0453
1011.00,0.0454
1010.00,0.0455
1009.00,0.0456
1008.00,0.0456
1007.00,0.0457
1006.00,0.0457
1005.00,0.0457
1004.00,0.0457
1003.00,0.0457
1002.00,0.0457
1001.00,0.0457
1000.00,0.0456
999.00,0.0455
998.00,0.0452
997.00,0.0450
996.00,0.0447
995.00,0.0445
994.00,0.0444
993.00,0.0443
992.00,0.0443
991.00,0.0441
990.00,0.0440
989.00,0.0438
988.00,0.0438
987.00,0.0438
986.00,0.0438
985.00,0.0438
984.00,0.0437
983.00,0.0437
982.00,0.0437
981.00,0.0436
980.00,0.0436
979.00,0.0435
978.00,0.0434
977.00,0.0432
976.00,0.0431
975.00,0.0430
974.00,0.0429
973.00,0.0429
972.00,0.0428
971.00,0.0428
970.00,0.0428
969.00,0.0429
968.00,0.0429
967.00,0.0429
966.00,0.0428
965.00,0.0427
964.00,0.0426
963.00,0.0425
962.00,0.0425
961.00,0.0424
960.00,0.0424
959.00,0.0422
958.00,0.0421
957.00,0.0420
956.00,0.0420
955.00,0.0422
954.00,0.0424
953.00,0.0425
952.00,0.0425
951.00,0.0424
950.00,0.0424
949.00,0.0425
948.00,0.0425
947.00,0.0426
946.00,0.0427
945.00,0.0429
944.00,0.0430
943.00,0.0431
942.00,0.0431
941.00,0.0432
940.00,0.0432
939.00,0.0433
938.00,0.0433
937.00,0.0433
936.00,0.0434
935.00,0.0435
934.00,0.0436
933.00,0.0436
932.00,0.0435
931.00,0.0435
930.00,0.0436
929.00,0.0437
928.00,0.0438
927.00,0.0440
926.00,0.0442
925.00,0.0444
924.00,0.0445
923.00,0.0446
922.00,0.0447
921.00,0.0447
920.00,0.0447
919.00,0.0448
918.00,0.0450
917.00,0.0452
916.00,0.0454
915.00,0.0455
914.00,0.0456
913.00,0.0457
912.00,0.0458
911.00,0.0459
910.00,0.0460
909.00,0.0460
908.00,0.0460
907.00,0.0459
906.00,0.0458
905.00,0.0457
904.00,0.0457
903.00,0.0457
902.00,0.0456
901.00,0.0456
900.00,0.0456
899.00,0.0456
898.00,0.0455
897.00,0.0454
896.00,0.0453
895.00,0.0453
894.00,0.0453
893.00,0.0454
892.00,0.0454
891.00,0.0455
890.00,0.0455
889.00,0.0455
888.00,0.0456
887.00,0.0457
886.00,0.0458
885.00,0.0458
884.00,0.0458
883.00,0.0458
882.00,0.0458
881.00,0.0460
880.00,0.0461
879.00,0.0462
878.00,0.0461
877.00,0.0460
876.00,0.0459
875.00,0.0458
874.00,0.0458
873.00,0.0457
872.00,0.0457
871.00,0.0456
870.00,0.0456
869.00,0.0456
868.00,0.0457
867.00,0.0458
866.00,0.0459
865.00,0.0459
864.00,0.0459
863.00,0.0460
862.00,0.0462
861.00,0.0463
860.00,0.0465
859.00,0.0466
858.00,0.0466
857.00,0.0467
856.00,0.0468
855.00,0.0469
854.00,0.0470
853.00,0.0470
852.00,0.0470
851.00,0.0470
850.00,0.0471
849.00,0.0472
848.00,0.0474
847.00,0.0476
846.00,0.0478
845.00,0.0479
844.00,0.0481
843.00,0.0483
842.00,0.0485
841.00,0.0485
840.00,0.0486
839.00,0.0487
838.00,0.0489
837.00,0.0492
836.00,0.0494
835.00,0.0495
834.00,0.0496
833.00,0.0497
832.00,0.0499
831.00,0.0501
830.00,0.0504
829.00,0.0505
828.00,0.0506
827.00,0.0505
826.00,0.0504
825.00,0.0503
824.00,0.0503
823.00,0.0504
822.00,0.0506
821.00,0.0507
820.00,0.0509
819.00,0.0511
818.00,0.0512
817.00,0.0513
816.00,0.0513
815.00,0.0514
814.00,0.0515
813.00,0.0517
812.00,0.0519
811.00,0.0521
810.00,0.0524
809.00,0.0526
808.00,0.0527
807.00,0.0528
806.00,0.0528
805.00,0.0530
804.00,0.0531
803.00,0.0533
802.00,0.0535
801.00,0.0537
800.00,0.0540
799.00,0.0541
798.00,0.0542
797.00,0.0543
796.00,0.0544
795.00,0.0546
794.00,0.0547
793.00,0.0548
792.00,0.0550
791.00,0.0552
790.00,0.0553
789.00,0.0554
788.00,0.0556
787.00,0.0558
786.00,0.0560
785.00,0.0563
784.00,0.0565
783.00,0.0566
782.00,0.0567
781.00,0.0567
780.00,0.0568
779.00,0.0570
778.00,0.0571
777.00,0.0572
776.00,0.0573
775.00,0.0574
774.00,0.0575
773.00,0.0577
772.00,0.0580
771.00,0.0581
770.00,0.0581
769.00,0.0581
768.00,0.0580
767.00,0.0580
766.00,0.0579
765.00,0.0579
764.00,0.0581
763.00,0.0582
762.00,0.0583
761.00,0.0585
760.00,0.0588
759.00,0.0592
758.00,0.0595
757.00,0.0597
756.00,0.0598
755.00,0.0599
754.00,0.0599
753.00,0.0599
752.00,0.0601
751.00,0.0601
750.00,0.0602
749.00,0.0601
748.00,0.0602
747.00,0.0602
746.00,0.0603
745.00,0.0603
744.00,0.0604
743.00,0.0604
742.00,0.0604
741.00,0.0604
740.00,0.0604
739.00,0.0603
738.00,0.0603
737.00,0.0604
736.00,0.0606
735.00,0.0609
734.00,0.0611
733.00,0.0613
732.00,0.0615
731.00,0.0617
730.00,0.0619
729.00,0.0619
728.00,0.0619
727.00,0.0619
726.00,0.0620
725.00,0.0621
724.00,0.0622
723.00,0.0623
722.00,0.0625
721.00,0.0628
720.00,0.0632
719.00,0.0635
718.00,0.0637
717.00,0.0639
716.00,0.0640
715.00,0.0643
714.00,0.0646
713.00,0.0651
712.00,0.0655
711.00,0.0657
710.00,0.0657
709.00,0.0656
708.00,0.0655
707.00,0.0658
706.00,0.0663
705.00,0.0669
704.00,0.0674
703.00,0.0676
702.00,0.0675
701.00,0.0674
700.00,0.0677
699.00,0.0681
698.00,0.0686
697.00,0.0691
696.00,0.0694
695.00,0.0696
694.00,0.0695
693.00,0.0692
692.00,0.0692
691.00,0.0693
690.00,0.0697
689.00,0.0700
688.00,0.0700
687.00,0.0699
686.00,0.0697
685.00,0.0696
684.00,0.0696
683.00,0.0699
682.00,0.0703
681.00,0.0707
680.00,0.0712
679.00,0.0713
678.00,0.0714
677.00,0.0717
676.00,0.0722
675.00,0.0728
674.00,0.0731
673.00,0.0732
672.00,0.0730
671.00,0.0727
670.00,0.0727
669.00,0.0736
668.00,0.0758
667.00,0.0776
666.00,0.0777
665.00,0.0766
664.00,0.0755
663.00,0.0747
662.00,0.0742
661.00,0.0744
660.00,0.0752
659.00,0.0763
658.00,0.0770
657.00,0.0771
656.00,0.0769
655.00,0.0768
654.00,0.0769
653.00,0.0773
652.00,0.0777
651.00,0.0778
650.00,0.0777
