Created as New Dataset,
cm-1,A
4000.00,-0.0042
3999.00,-0.0042
3998.00,-0.0042
3997.00,-0.0042
3996.00,-0.0041
3995.00,-0.0040
3994.00,-0.0040
3993.00,-0.0040
3992.00,-0.0040
3991.00,-0.0041
3990.00,-0.0041
3989.00,-0.0041
3988.00,-0.0041
3987.00,-0.0041
3986.00,-0.0041
3985.00,-0.0041
3984.00,-0.0041
3983.00,-0.0040
3982.00,-0.0040
3981.00,-0.0040
3980.00,-0.0040
3979.00,-0.0040
3978.00,-0.0039
3977.00,-0.0039
3976.00,-0.0039
3975.00,-0.0039
3974.00,-0.0039
3973.00,-0.0039
3972.00,-0.0039
3971.00,-0.0039
3970.00,-0.0040
3969.00,-0.0040
3968.00,-0.0040
3967.00,-0.0040
3966.00,-0.0040
3965.00,-0.0040
3964.00,-0.0039
3963.00,-0.0039
3962.00,-0.0038
3961.00,-0.0038
3960.00,-0.0038
3959.00,-0.0038
3958.00,-0.0038
3957.00,-0.0038
3956.00,-0.0039
3955.00,-0.0039
3954.00,-0.0039
3953.00,-0.0038
3952.00,-0.0038
3951.00,-0.0037
3950.00,-0.0037
3949.00,-0.0037
3948.00,-0.0037
3947.00,-0.0036
3946.00,-0.0036
3945.00,-0.0035
3944.00,-0.0035
3943.00,-0.0035
3942.00,-0.0036
3941.00,-0.0036
3940.00,-0.0036
3939.00,-0.0036
3938.00,-0.0037
3937.00,-0.0037
3936.00,-0.0037
3935.00,-0.0036
3934.00,-0.0036
3933.00,-0.0035
3932.00,-0.0035
3931.00,-0.0034
3930.00,-0.0034
3929.00,-0.0034
3928.00,-0.0033
3927.00,-0.0033
3926.00,-0.0034
3925.00,-0.0034
3924.00,-0.0035
3923.00,-0.0035
3922.00,-0.0035
3921.00,-0.0035
3920.00,-0.0036
3919.00,-0.0036
3918.00,-0.0035
3917.00,-0.0035
3916.00,-0.0035
3915.00,-0.0035
3914.00,-0.0035
3913.00,-0.0035
3912.00,-0.0035
3911.00,-0.0036
3910.00,-0.0035
3909.00,-0.0035
3908.00,-0.0034
3907.00,-0.0034
3906.00,-0.0034
3905.00,-0.0034
3904.00,-0.0034
3903.00,-0.0033
3902.00,-0.0031
3901.00,-0.0030
3900.00,-0.0029
3899.00,-0.0031
3898.00,-0.0032
3897.00,-0.0033
3896.00,-0.0033
3895.00,-0.0032
3894.00,-0.0032
3893.00,-0.0032
3892.00,-0.0033
3891.00,-0.0034
3890.00,-0.0034
3889.00,-0.0033
3888.00,-0.0031
3887.00,-0.0030
3886.00,-0.0032
3885.00,-0.0033
3884.00,-0.0031
3883.00,-0.0028
3882.00,-0.0026
3881.00,-0.0027
3880.00,-0.0030
3879.00,-0.0032
3878.00,-0.0031
3877.00,-0.0030
3876.00,-0.0029
3875.00,-0.0030
3874.00,-0.0032
3873.00,-0.0032
3872.00,-0.0030
3871.00,-0.0030
3870.00,-0.0031
3869.00,-0.0032
3868.00,-0.0031
3867.00,-0.0029
3866.00,-0.0028
3865.00,-0.0029
3864.00,-0.0031
3863.00,-0.0031
3862.00,-0.0030
3861.00,-0.0030
3860.00,-0.0031
3859.00,-0.0032
3858.00,-0.0032
3857.00,-0.0032
3856.00,-0.0030
3855.00,-0.0029
3854.00,-0.0030
3853.00,-0.0031
3852.00,-0.0030
3851.00,-0.0029
3850.00,-0.0029
3849.00,-0.0030
3848.00,-0.0031
3847.00,-0.0032
3846.00,-0.0032
3845.00,-0.0031
3844.00,-0.0032
3843.00,-0.0032
3842.00,-0.0031
3841.00,-0.0030
3840.00,-0.0029
3839.00,-0.0029
3838.00,-0.0029
3837.00,-0.0029
3836.00,-0.0028
3835.00,-0.0028
3834.00,-0.0027
3833.00,-0.0028
3832.00,-0.0029
3831.00,-0.0030
3830.00,-0.0030
3829.00,-0.0029
3828.00,-0.0028
3827.00,-0.0029
3826.00,-0.0031
3825.00,-0.0031
3824.00,-0.0029
3823.00,-0.0028
3822.00,-0.0028
3821.00,-0.0031
3820.00,-0.0031
3819.00,-0.0030
3818.00,-0.0027
3817.00,-0.0027
3816.00,-0.0029
3815.00,-0.0031
3814.00,-0.0030
3813.00,-0.0029
3812.00,-0.0030
3811.00,-0.0031
3810.00,-0.0031
3809.00,-0.0031
3808.00,-0.0031
3807.00,-0.0033
3806.00,-0.0034
3805.00,-0.0033
3804.00,-0.0030
3803.00,-0.0028
3802.00,-0.0029
3801.00,-0.0030
3800.00,-0.0029
3799.00,-0.0027
3798.00,-0.0026
3797.00,-0.0027
3796.00,-0.0029
3795.00,-0.0030
3794.00,-0.0029
3793.00,-0.0029
3792.00,-0.0029
3791.00,-0.0030
3790.00,-0.0030
3789.00,-0.0031
3788.00,-0.0030
3787.00,-0.0030
3786.00,-0.0030
3785.00,-0.0030
3784.00,-0.0030
3783.00,-0.0029
3782.00,-0.0028
3781.00,-0.0028
3780.00,-0.0028
3779.00,-0.0029
3778.00,-0.0030
3777.00,-0.0029
3776.00,-0.0029
3775.00,-0.0030
3774.00,-0.0031
3773.00,-0.0031
3772.00,-0.0031
3771.00,-0.0031
3770.00,-0.0031
3769.00,-0.0030
3768.00,-0.0029
3767.00,-0.0027
3766.00,-0.0028
3765.00,-0.0029
3764.00,-0.0029
3763.00,-0.0029
3762.00,-0.0027
3761.00,-0.0027
3760.00,-0.0028
3759.00,-0.0029
3758.00,-0.0029
3757.00,-0.0030
3756.00,-0.0030
3755.00,-0.0030
3754.00,-0.0030
3753.00,-0.0031
3752.00,-0.0033
3751.00,-0.0033
3750.00,-0.0031
3749.00,-0.0030
3748.00,-0.0028
3747.00,-0.0026
3746.00,-0.0024
3745.00,-0.0025
3744.00,-0.0028
3743.00,-0.0029
3742.00,-0.0028
3741.00,-0.0028
3740.00,-0.0029
3739.00,-0.0030
3738.00,-0.0030
3737.00,-0.0030
3736.00,-0.0029
3735.00,-0.0027
3734.00,-0.0026
3733.00,-0.0025
3732.00,-0.0026
3731.00,-0.0028
3730.00,-0.0029
3729.00,-0.0028
3728.00,-0.0028
3727.00,-0.0029
3726.00,-0.0029
3725.00,-0.0028
3724.00,-0.0027
3723.00,-0.0026
3722.00,-0.0026
3721.00,-0.0027
3720.00,-0.0027
3719.00,-0.0027
3718.00,-0.0028
3717.00,-0.0029
3716.00,-0.0030
3715.00,-0.0029
3714.00,-0.0028
3713.00,-0.0029
3712.00,-0.0029
3711.00,-0.0028
3710.00,-0.0026
3709.00,-0.0026
3708.00,-0.0026
3707.00,-0.0028
3706.00,-0.0030
3705.00,-0.0030
3704.00,-0.0029
3703.00,-0.0029
3702.00,-0.0028
3701.00,-0.0028
3700.00,-0.0028
3699.00,-0.0028
3698.00,-0.0028
3697.00,-0.0028
3696.00,-0.0029
3695.00,-0.0029
3694.00,-0.0029
3693.00,-0.0029
3692.00,-0.0029
3691.00,-0.0029
3690.00,-0.0028
3689.00,-0.0027
3688.00,-0.0027
3687.00,-0.0027
3686.00,-0.0027
3685.00,-0.0027
3684.00,-0.0028
3683.00,-0.0029
3682.00,-0.0030
3681.00,-0.0030
3680.00,-0.0031
3679.00,-0.0031
3678.00,-0.0029
3677.00,-0.0027
3676.00,-0.0026
3675.00,-0.0027
3674.00,-0.0027
3673.00,-0.0025
3672.00,-0.0024
3671.00,-0.0025
3670.00,-0.0027
3669.00,-0.0027
3668.00,-0.0026
3667.00,-0.0026
3666.00,-0.0026
3665.00,-0.0028
3664.00,-0.0030
3663.00,-0.0031
3662.00,-0.0032
3661.00,-0.0032
3660.00,-0.0032
3659.00,-0.0032
3658.00,-0.0031
3657.00,-0.0030
3656.00,-0.0030
3655.00,-0.0029
3654.00,-0.0027
3653.00,-0.0025
3652.00,-0.0025
3651.00,-0.0029
3650.00,-0.0031
3649.00,-0.0028
3648.00,-0.0024
3647.00,-0.0022
3646.00,-0.0023
3645.00,-0.0025
3644.00,-0.0026
3643.00,-0.0027
3642.00,-0.0029
3641.00,-0.0029
3640.00,-0.0029
3639.00,-0.0029
3638.00,-0.0029
3637.00,-0.0029
3636.00,-0.0028
3635.00,-0.0029
3634.00,-0.0030
3633.00,-0.0031
3632.00,-0.0029
3631.00,-0.0027
3630.00,-0.0027
3629.00,-0.0027
3628.00,-0.0027
3627.00,-0.0026
3626.00,-0.0026
3625.00,-0.0027
3624.00,-0.0028
3623.00,-0.0029
3622.00,-0.0028
3621.00,-0.0027
3620.00,-0.0026
3619.00,-0.0026
3618.00,-0.0025
3617.00,-0.0025
3616.00,-0.0025
3615.00,-0.0025
3614.00,-0.0027
3613.00,-0.0029
3612.00,-0.0029
3611.00,-0.0028
3610.00,-0.0027
3609.00,-0.0027
3608.00,-0.0027
3607.00,-0.0027
3606.00,-0.0027
3605.00,-0.0027
3604.00,-0.0027
3603.00,-0.0027
3602.00,-0.0027
3601.00,-0.0028
3600.00,-0.0028
3599.00,-0.0028
3598.00,-0.0028
3597.00,-0.0027
3596.00,-0.0027
3595.00,-0.0026
3594.00,-0.0027
3593.00,-0.0027
3592.00,-0.0028
3591.00,-0.0028
3590.00,-0.0028
3589.00,-0.0027
3588.00,-0.0026
3587.00,-0.0025
3586.00,-0.0024
3585.00,-0.0023
3584.00,-0.0024
3583.00,-0.0025
3582.00,-0.0026
3581.00,-0.0026
3580.00,-0.0026
3579.00,-0.0026
3578.00,-0.0026
3577.00,-0.0026
3576.00,-0.0027
3575.00,-0.0027
3574.00,-0.0028
3573.00,-0.0028
3572.00,-0.0027
3571.00,-0.0027
3570.00,-0.0026
3569.00,-0.0025
3568.00,-0.0024
3567.00,-0.0023
3566.00,-0.0022
3565.00,-0.0021
3564.00,-0.0022
3563.00,-0.0022
3562.00,-0.0024
3561.00,-0.0025
3560.00,-0.0026
3559.00,-0.0027
3558.00,-0.0027
3557.00,-0.0027
3556.00,-0.0028
3555.00,-0.0027
3554.00,-0.0027
3553.00,-0.0027
3552.00,-0.0027
3551.00,-0.0027
3550.00,-0.0026
3549.00,-0.0026
3548.00,-0.0026
3547.00,-0.0025
3546.00,-0.0025
3545.00,-0.0024
3544.00,-0.0024
3543.00,-0.0025
3542.00,-0.0026
3541.00,-0.0026
3540.00,-0.0027
3539.00,-0.0026
3538.00,-0.0026
3537.00,-0.0026
3536.00,-0.0026
3535.00,-0.0026
3534.00,-0.0027
3533.00,-0.0027
3532.00,-0.0027
3531.00,-0.0027
3530.00,-0.0027
3529.00,-0.0027
3528.00,-0.0027
3527.00,-0.0027
3526.00,-0.0026
3525.00,-0.0025
3524.00,-0.0025
3523.00,-0.0025
3522.00,-0.0025
3521.00,-0.0025
3520.00,-0.0025
3519.00,-0.0025
3518.00,-0.0026
3517.00,-0.0026
3516.00,-0.0026
3515.00,-0.0026
3514.00,-0.0026
3513.00,-0.0026
3512.00,-0.0026
3511.00,-0.0025
3510.00,-0.0025
3509.00,-0.0025
3508.00,-0.0025
3507.00,-0.0025
3506.00,-0.0025
3505.00,-0.0025
3504.00,-0.0025
3503.00,-0.0025
3502.00,-0.0025
3501.00,-0.0025
3500.00,-0.0025
3499.00,-0.0025
3498.00,-0.0026
3497.00,-0.0026
3496.00,-0.0027
3495.00,-0.0026
3494.00,-0.0026
3493.00,-0.0026
3492.00,-0.0025
3491.00,-0.0026
3490.00,-0.0026
3489.00,-0.0027
3488.00,-0.0027
3487.00,-0.0027
3486.00,-0.0026
3485.00,-0.0025
3484.00,-0.0024
3483.00,-0.0023
3482.00,-0.0024
3481.00,-0.0024
3480.00,-0.0024
3479.00,-0.0024
3478.00,-0.0024
3477.00,-0.0024
3476.00,-0.0024
3475.00,-0.0024
3474.00,-0.0024
3473.00,-0.0024
3472.00,-0.0024
3471.00,-0.0024
3470.00,-0.0024
3469.00,-0.0024
3468.00,-0.0024
3467.00,-0.0025
3466.00,-0.0025
3465.00,-0.0024
3464.00,-0.0024
3463.00,-0.0024
3462.00,-0.0024
3461.00,-0.0025
3460.00,-0.0025
3459.00,-0.0025
3458.00,-0.0025
3457.00,-0.0025
3456.00,-0.0024
3455.00,-0.0024
3454.00,-0.0024
3453.00,-0.0023
3452.00,-0.0023
3451.00,-0.0024
3450.00,-0.0024
3449.00,-0.0025
3448.00,-0.0025
3447.00,-0.0024
3446.00,-0.0024
3445.00,-0.0024
3444.00,-0.0023
3443.00,-0.0023
3442.00,-0.0024
3441.00,-0.0024
3440.00,-0.0024
3439.00,-0.0024
3438.00,-0.0025
3437.00,-0.0025
3436.00,-0.0025
3435.00,-0.0025
3434.00,-0.0025
3433.00,-0.0025
3432.00,-0.0025
3431.00,-0.0024
3430.00,-0.0024
3429.00,-0.0024
3428.00,-0.0025
3427.00,-0.0025
3426.00,-0.0024
3425.00,-0.0024
3424.00,-0.0023
3423.00,-0.0023
3422.00,-0.0023
3421.00,-0.0023
3420.00,-0.0023
3419.00,-0.0023
3418.00,-0.0024
3417.00,-0.0024
3416.00,-0.0024
3415.00,-0.0024
3414.00,-0.0024
3413.00,-0.0023
3412.00,-0.0023
3411.00,-0.0023
3410.00,-0.0023
3409.00,-0.0023
3408.00,-0.0023
3407.00,-0.0023
3406.00,-0.0022
3405.00,-0.0022
3404.00,-0.0021
3403.00,-0.0021
3402.00,-0.0022
3401.00,-0.0022
3400.00,-0.0022
3399.00,-0.0023
3398.00,-0.0023
3397.00,-0.0023
3396.00,-0.0022
3395.00,-0.0022
3394.00,-0.0022
3393.00,-0.0022
3392.00,-0.0021
3391.00,-0.0021
3390.00,-0.0022
3389.00,-0.0022
3388.00,-0.0022
3387.00,-0.0022
3386.00,-0.0022
3385.00,-0.0021
3384.00,-0.0022
3383.00,-0.0022
3382.00,-0.0023
3381.00,-0.0023
3380.00,-0.0023
3379.00,-0.0023
3378.00,-0.0023
3377.00,-0.0022
3376.00,-0.0022
3375.00,-0.0022
3374.00,-0.0022
3373.00,-0.0021
3372.00,-0.0021
3371.00,-0.0021
3370.00,-0.0022
3369.00,-0.0022
3368.00,-0.0022
3367.00,-0.0022
3366.00,-0.0021
3365.00,-0.0021
3364.00,-0.0020
3363.00,-0.0019
3362.00,-0.0019
3361.00,-0.0019
3360.00,-0.0020
3359.00,-0.0020
3358.00,-0.0020
3357.00,-0.0020
3356.00,-0.0019
3355.00,-0.0019
3354.00,-0.0020
3353.00,-0.0020
3352.00,-0.0020
3351.00,-0.0021
3350.00,-0.0021
3349.00,-0.0021
3348.00,-0.0022
3347.00,-0.0021
3346.00,-0.0021
3345.00,-0.0021
3344.00,-0.0020
3343.00,-0.0020
3342.00,-0.0020
3341.00,-0.0020
3340.00,-0.0021
3339.00,-0.0020
3338.00,-0.0020
3337.00,-0.0019
3336.00,-0.0019
3335.00,-0.0019
3334.00,-0.0019
3333.00,-0.0019
3332.00,-0.0019
3331.00,-0.0019
3330.00,-0.0019
3329.00,-0.0019
3328.00,-0.0019
3327.00,-0.0019
3326.00,-0.0018
3325.00,-0.0018
3324.00,-0.0017
3323.00,-0.0017
3322.00,-0.0017
3321.00,-0.0018
3320.00,-0.0018
3319.00,-0.0018
3318.00,-0.0018
3317.00,-0.0018
3316.00,-0.0018
3315.00,-0.0018
3314.00,-0.0018
3313.00,-0.0018
3312.00,-0.0018
3311.00,-0.0018
3310.00,-0.0018
3309.00,-0.0018
3308.00,-0.0018
3307.00,-0.0017
3306.00,-0.0017
3305.00,-0.0016
3304.00,-0.0015
3303.00,-0.0015
3302.00,-0.0016
3301.00,-0.0017
3300.00,-0.0017
3299.00,-0.0018
3298.00,-0.0018
3297.00,-0.0018
3296.00,-0.0018
3295.00,-0.0017
3294.00,-0.0017
3293.00,-0.0017
3292.00,-0.0017
3291.00,-0.0017
3290.00,-0.0017
3289.00,-0.0017
3288.00,-0.0017
3287.00,-0.0017
3286.00,-0.0016
3285.00,-0.0016
3284.00,-0.0016
3283.00,-0.0016
3282.00,-0.0016
3281.00,-0.0016
3280.00,-0.0016
3279.00,-0.0017
3278.00,-0.0017
3277.00,-0.0017
3276.00,-0.0017
3275.00,-0.0016
3274.00,-0.0016
3273.00,-0.0016
3272.00,-0.0015
3271.00,-0.0015
3270.00,-0.0015
3269.00,-0.0016
3268.00,-0.0016
3267.00,-0.0016
3266.00,-0.0016
3265.00,-0.0016
3264.00,-0.0016
3263.00,-0.0016
3262.00,-0.0016
3261.00,-0.0016
3260.00,-0.0016
3259.00,-0.0016
3258.00,-0.0016
3257.00,-0.0016
3256.00,-0.0016
3255.00,-0.0016
3254.00,-0.0016
3253.00,-0.0016
3252.00,-0.0016
3251.00,-0.0016
3250.00,-0.0016
3249.00,-0.0016
3248.00,-0.0015
3247.00,-0.0015
3246.00,-0.0014
3245.00,-0.0014
3244.00,-0.0014
3243.00,-0.0015
3242.00,-0.0015
3241.00,-0.0015
3240.00,-0.0015
3239.00,-0.0015
3238.00,-0.0015
3237.00,-0.0015
3236.00,-0.0015
3235.00,-0.0015
3234.00,-0.0014
3233.00,-0.0014
3232.00,-0.0013
3231.00,-0.0012
3230.00,-0.0013
3229.00,-0.0013
3228.00,-0.0014
3227.00,-0.0014
3226.00,-0.0015
3225.00,-0.0015
3224.00,-0.0015
3223.00,-0.0014
3222.00,-0.0014
3221.00,-0.0014
3220.00,-0.0014
3219.00,-0.0014
3218.00,-0.0015
3217.00,-0.0015
3216.00,-0.0015
3215.00,-0.0015
3214.00,-0.0016
3213.00,-0.0015
3212.00,-0.0015
3211.00,-0.0014
3210.00,-0.0014
3209.00,-0.0014
3208.00,-0.0014
3207.00,-0.0014
3206.00,-0.0014
3205.00,-0.0014
3204.00,-0.0014
3203.00,-0.0014
3202.00,-0.0014
3201.00,-0.0014
3200.00,-0.0014
3199.00,-0.0014
3198.00,-0.0014
3197.00,-0.0014
3196.00,-0.0014
3195.00,-0.0014
3194.00,-0.0014
3193.00,-0.0014
3192.00,-0.0014
3191.00,-0.0014
3190.00,-0.0014
3189.00,-0.0014
3188.00,-0.0014
3187.00,-0.0014
3186.00,-0.0014
3185.00,-0.0014
3184.00,-0.0014
3183.00,-0.0014
3182.00,-0.0014
3181.00,-0.0014
3180.00,-0.0014
3179.00,-0.0014
3178.00,-0.0014
3177.00,-0.0014
3176.00,-0.0014
3175.00,-0.0014
3174.00,-0.0014
3173.00,-0.0014
3172.00,-0.0014
3171.00,-0.0014
3170.00,-0.0014
3169.00,-0.0014
3168.00,-0.0014
3167.00,-0.0014
3166.00,-0.0014
3165.00,-0.0014
3164.00,-0.0014
3163.00,-0.0014
3162.00,-0.0014
3161.00,-0.0014
3160.00,-0.0014
3159.00,-0.0014
3158.00,-0.0014
3157.00,-0.0014
3156.00,-0.0014
3155.00,-0.0015
3154.00,-0.0015
3153.00,-0.0015
3152.00,-0.0015
3151.00,-0.0015
3150.00,-0.0015
3149.00,-0.0015
3148.00,-0.0015
3147.00,-0.0015
3146.00,-0.0015
3145.00,-0.0014
3144.00,-0.0014
3143.00,-0.0014
3142.00,-0.0014
3141.00,-0.0015
3140.00,-0.0015
3139.00,-0.0015
3138.00,-0.0015
3137.00,-0.0015
3136.00,-0.0015
3135.00,-0.0015
3134.00,-0.0015
3133.00,-0.0016
3132.00,-0.0016
3131.00,-0.0015
3130.00,-0.0014
3129.00,-0.0014
3128.00,-0.0014
3127.00,-0.0014
3126.00,-0.0015
3125.00,-0.0015
3124.00,-0.0015
3123.00,-0.0016
3122.00,-0.0016
3121.00,-0.0016
3120.00,-0.0015
3119.00,-0.0016
3118.00,-0.0016
3117.00,-0.0016
3116.00,-0.0015
3115.00,-0.0015
3114.00,-0.0014
3113.00,-0.0014
3112.00,-0.0014
3111.00,-0.0015
3110.00,-0.0015
3109.00,-0.0016
3108.00,-0.0016
3107.00,-0.0016
3106.00,-0.0016
3105.00,-0.0016
3104.00,-0.0016
3103.00,-0.0016
3102.00,-0.0016
3101.00,-0.0016
3100.00,-0.0016
3099.00,-0.0016
3098.00,-0.0016
3097.00,-0.0016
3096.00,-0.0016
3095.00,-0.0016
3094.00,-0.0016
3093.00,-0.0016
3092.00,-0.0016
3091.00,-0.0017
3090.00,-0.0017
3089.00,-0.0017
3088.00,-0.0016
3087.00,-0.0016
3086.00,-0.0016
3085.00,-0.0016
3084.00,-0.0016
3083.00,-0.0016
3082.00,-0.0016
3081.00,-0.0016
3080.00,-0.0016
3079.00,-0.0017
3078.00,-0.0017
3077.00,-0.0017
3076.00,-0.0017
3075.00,-0.0017
3074.00,-0.0017
3073.00,-0.0017
3072.00,-0.0017
3071.00,-0.0017
3070.00,-0.0017
3069.00,-0.0018
3068.00,-0.0018
3067.00,-0.0018
3066.00,-0.0018
3065.00,-0.0018
3064.00,-0.0018
3063.00,-0.0017
3062.00,-0.0018
3061.00,-0.0018
3060.00,-0.0018
3059.00,-0.0017
3058.00,-0.0018
3057.00,-0.0018
3056.00,-0.0018
3055.00,-0.0017
3054.00,-0.0017
3053.00,-0.0017
3052.00,-0.0017
3051.00,-0.0018
3050.00,-0.0018
3049.00,-0.0019
3048.00,-0.0019
3047.00,-0.0019
3046.00,-0.0019
3045.00,-0.0019
3044.00,-0.0019
3043.00,-0.0019
3042.00,-0.0019
3041.00,-0.0019
3040.00,-0.0019
3039.00,-0.0019
3038.00,-0.0018
3037.00,-0.0018
3036.00,-0.0018
3035.00,-0.0018
3034.00,-0.0018
3033.00,-0.0018
3032.00,-0.0018
3031.00,-0.0018
3030.00,-0.0019
3029.00,-0.0019
3028.00,-0.0019
3027.00,-0.0020
3026.00,-0.0020
3025.00,-0.0020
3024.00,-0.0020
3023.00,-0.0020
3022.00,-0.0020
3021.00,-0.0020
3020.00,-0.0020
3019.00,-0.0020
3018.00,-0.0020
3017.00,-0.0021
3016.00,-0.0021
3015.00,-0.0021
3014.00,-0.0021
3013.00,-0.0020
3012.00,-0.0021
3011.00,-0.0021
3010.00,-0.0021
3009.00,-0.0021
3008.00,-0.0022
3007.00,-0.0022
3006.00,-0.0022
3005.00,-0.0023
3004.00,-0.0023
3003.00,-0.0023
3002.00,-0.0023
3001.00,-0.0024
3000.00,-0.0024
2999.00,-0.0025
2998.00,-0.0025
2997.00,-0.0025
2996.00,-0.0025
2995.00,-0.0025
2994.00,-0.0026
2993.00,-0.0026
2992.00,-0.0026
2991.00,-0.0027
2990.00,-0.0027
2989.00,-0.0028
2988.00,-0.0028
2987.00,-0.0028
2986.00,-0.0029
2985.00,-0.0029
2984.00,-0.0030
2983.00,-0.0031
2982.00,-0.0032
2981.00,-0.0032
2980.00,-0.0033
2979.00,-0.0032
2978.00,-0.0032
2977.00,-0.0032
2976.00,-0.0032
2975.00,-0.0032
2974.00,-0.0032
2973.00,-0.0033
2972.00,-0.0033
2971.00,-0.0034
2970.00,-0.0034
2969.00,-0.0034
2968.00,-0.0034
2967.00,-0.0034
2966.00,-0.0034
2965.00,-0.0034
2964.00,-0.0034
2963.00,-0.0035
2962.00,-0.0035
2961.00,-0.0035
2960.00,-0.0035
2959.00,-0.0035
2958.00,-0.0035
2957.00,-0.0035
2956.00,-0.0035
2955.00,-0.0035
2954.00,-0.0035
2953.00,-0.0035
2952.00,-0.0034
2951.00,-0.0034
2950.00,-0.0034
2949.00,-0.0035
2948.00,-0.0035
2947.00,-0.0034
2946.00,-0.0034
2945.00,-0.0034
2944.00,-0.0034
2943.00,-0.0034
2942.00,-0.0034
2941.00,-0.0035
2940.00,-0.0036
2939.00,-0.0037
2938.00,-0.0038
2937.00,-0.0038
2936.00,-0.0039
2935.00,-0.0040
2934.00,-0.0041
2933.00,-0.0042
2932.00,-0.0043
2931.00,-0.0044
2930.00,-0.0044
2929.00,-0.0045
2928.00,-0.0046
2927.00,-0.0047
2926.00,-0.0047
2925.00,-0.0048
2924.00,-0.0049
2923.00,-0.0049
2922.00,-0.0048
2921.00,-0.0047
2920.00,-0.0046
2919.00,-0.0046
2918.00,-0.0045
2917.00,-0.0045
2916.00,-0.0043
2915.00,-0.0042
2914.00,-0.0040
2913.00,-0.0039
2912.00,-0.0039
2911.00,-0.0038
2910.00,-0.0038
2909.00,-0.0037
2908.00,-0.0036
2907.00,-0.0036
2906.00,-0.0036
2905.00,-0.0036
2904.00,-0.0035
2903.00,-0.0035
2902.00,-0.0035
2901.00,-0.0034
2900.00,-0.0034
2899.00,-0.0034
2898.00,-0.0034
2897.00,-0.0034
2896.00,-0.0034
2895.00,-0.0034
2894.00,-0.0034
2893.00,-0.0033
2892.00,-0.0033
2891.00,-0.0033
2890.00,-0.0033
2889.00,-0.0033
2888.00,-0.0033
2887.00,-0.0032
2886.00,-0.0032
2885.00,-0.0032
2884.00,-0.0031
2883.00,-0.0031
2882.00,-0.0030
2881.00,-0.0030
2880.00,-0.0030
2879.00,-0.0030
2878.00,-0.0030
2877.00,-0.0030
2876.00,-0.0031
2875.00,-0.0032
2874.00,-0.0032
2873.00,-0.0033
2872.00,-0.0033
2871.00,-0.0033
2870.00,-0.0033
2869.00,-0.0033
2868.00,-0.0033
2867.00,-0.0033
2866.00,-0.0033
2865.00,-0.0033
2864.00,-0.0033
2863.00,-0.0034
2862.00,-0.0034
2861.00,-0.0034
2860.00,-0.0035
2859.00,-0.0035
2858.00,-0.0036
2857.00,-0.0036
2856.00,-0.0037
2855.00,-0.0038
2854.00,-0.0038
2853.00,-0.0038
2852.00,-0.0038
2851.00,-0.0037
2850.00,-0.0037
2849.00,-0.0036
2848.00,-0.0035
2847.00,-0.0034
2846.00,-0.0033
2845.00,-0.0032
2844.00,-0.0031
2843.00,-0.0030
2842.00,-0.0029
2841.00,-0.0028
2840.00,-0.0028
2839.00,-0.0027
2838.00,-0.0026
2837.00,-0.0026
2836.00,-0.0026
2835.00,-0.0026
2834.00,-0.0026
2833.00,-0.0026
2832.00,-0.0026
2831.00,-0.0026
2830.00,-0.0026
2829.00,-0.0026
2828.00,-0.0025
2827.00,-0.0025
2826.00,-0.0025
2825.00,-0.0025
2824.00,-0.0025
2823.00,-0.0025
2822.00,-0.0025
2821.00,-0.0025
2820.00,-0.0025
2819.00,-0.0024
2818.00,-0.0024
2817.00,-0.0025
2816.00,-0.0025
2815.00,-0.0025
2814.00,-0.0025
2813.00,-0.0025
2812.00,-0.0025
2811.00,-0.0025
2810.00,-0.0025
2809.00,-0.0025
2808.00,-0.0025
2807.00,-0.0025
2806.00,-0.0025
2805.00,-0.0025
2804.00,-0.0024
2803.00,-0.0024
2802.00,-0.0024
2801.00,-0.0024
2800.00,-0.0024
2799.00,-0.0024
2798.00,-0.0024
2797.00,-0.0024
2796.00,-0.0024
2795.00,-0.0024
2794.00,-0.0024
2793.00,-0.0024
2792.00,-0.0024
2791.00,-0.0024
2790.00,-0.0024
2789.00,-0.0023
2788.00,-0.0023
2787.00,-0.0023
2786.00,-0.0023
2785.00,-0.0023
2784.00,-0.0023
2783.00,-0.0023
2782.00,-0.0023
2781.00,-0.0023
2780.00,-0.0023
2779.00,-0.0024
2778.00,-0.0024
2777.00,-0.0024
2776.00,-0.0023
2775.00,-0.0023
2774.00,-0.0023
2773.00,-0.0023
2772.00,-0.0023
2771.00,-0.0024
2770.00,-0.0024
2769.00,-0.0023
2768.00,-0.0023
2767.00,-0.0023
2766.00,-0.0023
2765.00,-0.0023
2764.00,-0.0023
2763.00,-0.0022
2762.00,-0.0022
2761.00,-0.0022
2760.00,-0.0022
2759.00,-0.0022
2758.00,-0.0022
2757.00,-0.0022
2756.00,-0.0022
2755.00,-0.0023
2754.00,-0.0023
2753.00,-0.0022
2752.00,-0.0022
2751.00,-0.0022
2750.00,-0.0022
2749.00,-0.0022
2748.00,-0.0022
2747.00,-0.0022
2746.00,-0.0022
2745.00,-0.0022
2744.00,-0.0023
2743.00,-0.0023
2742.00,-0.0023
2741.00,-0.0022
2740.00,-0.0022
2739.00,-0.0022
2738.00,-0.0022
2737.00,-0.0022
2736.00,-0.0022
2735.00,-0.0023
2734.00,-0.0023
2733.00,-0.0022
2732.00,-0.0022
2731.00,-0.0022
2730.00,-0.0021
2729.00,-0.0021
2728.00,-0.0021
2727.00,-0.0021
2726.00,-0.0021
2725.00,-0.0021
2724.00,-0.0022
2723.00,-0.0022
2722.00,-0.0022
2721.00,-0.0021
2720.00,-0.0021
2719.00,-0.0021
2718.00,-0.0021
2717.00,-0.0022
2716.00,-0.0022
2715.00,-0.0021
2714.00,-0.0021
2713.00,-0.0021
2712.00,-0.0021
2711.00,-0.0021
2710.00,-0.0021
2709.00,-0.0021
2708.00,-0.0021
2707.00,-0.0021
2706.00,-0.0021
2705.00,-0.0021
2704.00,-0.0021
2703.00,-0.0021
2702.00,-0.0021
2701.00,-0.0021
2700.00,-0.0021
2699.00,-0.0021
2698.00,-0.0022
2697.00,-0.0021
2696.00,-0.0021
2695.00,-0.0021
2694.00,-0.0021
2693.00,-0.0020
2692.00,-0.0020
2691.00,-0.0020
2690.00,-0.0020
2689.00,-0.0020
2688.00,-0.0021
2687.00,-0.0021
2686.00,-0.0021
2685.00,-0.0021
2684.00,-0.0021
2683.00,-0.0021
2682.00,-0.0021
2681.00,-0.0020
2680.00,-0.0020
2679.00,-0.0020
2678.00,-0.0020
2677.00,-0.0020
2676.00,-0.0020
2675.00,-0.0020
2674.00,-0.0020
2673.00,-0.0020
2672.00,-0.0020
2671.00,-0.0021
2670.00,-0.0021
2669.00,-0.0021
2668.00,-0.0021
2667.00,-0.0021
2666.00,-0.0021
2665.00,-0.0021
2664.00,-0.0020
2663.00,-0.0021
2662.00,-0.0021
2661.00,-0.0021
2660.00,-0.0021
2659.00,-0.0021
2658.00,-0.0020
2657.00,-0.0020
2656.00,-0.0020
2655.00,-0.0020
2654.00,-0.0021
2653.00,-0.0021
2652.00,-0.0021
2651.00,-0.0021
2650.00,-0.0021
2649.00,-0.0021
2648.00,-0.0020
2647.00,-0.0020
2646.00,-0.0020
2645.00,-0.0020
2644.00,-0.0020
2643.00,-0.0019
2642.00,-0.0019
2641.00,-0.0019
2640.00,-0.0019
2639.00,-0.0019
2638.00,-0.0019
2637.00,-0.0019
2636.00,-0.0019
2635.00,-0.0019
2634.00,-0.0020
2633.00,-0.0020
2632.00,-0.0020
2631.00,-0.0020
2630.00,-0.0020
2629.00,-0.0020
2628.00,-0.0020
2627.00,-0.0020
2626.00,-0.0020
2625.00,-0.0020
2624.00,-0.0020
2623.00,-0.0021
2622.00,-0.0021
2621.00,-0.0021
2620.00,-0.0021
2619.00,-0.0020
2618.00,-0.0020
2617.00,-0.0019
2616.00,-0.0019
2615.00,-0.0019
2614.00,-0.0019
2613.00,-0.0019
2612.00,-0.0019
2611.00,-0.0019
2610.00,-0.0020
2609.00,-0.0019
2608.00,-0.0019
2607.00,-0.0019
2606.00,-0.0019
2605.00,-0.0019
2604.00,-0.0019
2603.00,-0.0018
2602.00,-0.0018
2601.00,-0.0018
2600.00,-0.0019
2599.00,-0.0019
2598.00,-0.0019
2597.00,-0.0019
2596.00,-0.0019
2595.00,-0.0019
2594.00,-0.0019
2593.00,-0.0018
2592.00,-0.0018
2591.00,-0.0018
2590.00,-0.0018
2589.00,-0.0018
2588.00,-0.0018
2587.00,-0.0019
2586.00,-0.0020
2585.00,-0.0020
2584.00,-0.0020
2583.00,-0.0019
2582.00,-0.0019
2581.00,-0.0019
2580.00,-0.0019
2579.00,-0.0019
2578.00,-0.0018
2577.00,-0.0018
2576.00,-0.0017
2575.00,-0.0017
2574.00,-0.0018
2573.00,-0.0018
2572.00,-0.0019
2571.00,-0.0019
2570.00,-0.0019
2569.00,-0.0019
2568.00,-0.0019
2567.00,-0.0019
2566.00,-0.0018
2565.00,-0.0018
2564.00,-0.0017
2563.00,-0.0017
2562.00,-0.0017
2561.00,-0.0017
2560.00,-0.0018
2559.00,-0.0018
2558.00,-0.0018
2557.00,-0.0019
2556.00,-0.0019
2555.00,-0.0018
2554.00,-0.0018
2553.00,-0.0017
2552.00,-0.0017
2551.00,-0.0017
2550.00,-0.0017
2549.00,-0.0017
2548.00,-0.0017
2547.00,-0.0018
2546.00,-0.0018
2545.00,-0.0018
2544.00,-0.0018
2543.00,-0.0017
2542.00,-0.0017
2541.00,-0.0016
2540.00,-0.0016
2539.00,-0.0016
2538.00,-0.0017
2537.00,-0.0017
2536.00,-0.0017
2535.00,-0.0017
2534.00,-0.0016
2533.00,-0.0016
2532.00,-0.0016
2531.00,-0.0016
2530.00,-0.0016
2529.00,-0.0016
2528.00,-0.0016
2527.00,-0.0016
2526.00,-0.0016
2525.00,-0.0016
2524.00,-0.0016
2523.00,-0.0016
2522.00,-0.0016
2521.00,-0.0016
2520.00,-0.0016
2519.00,-0.0016
2518.00,-0.0017
2517.00,-0.0017
2516.00,-0.0018
2515.00,-0.0018
2514.00,-0.0017
2513.00,-0.0017
2512.00,-0.0016
2511.00,-0.0016
2510.00,-0.0016
2509.00,-0.0017
2508.00,-0.0018
2507.00,-0.0019
2506.00,-0.0019
2505.00,-0.0018
2504.00,-0.0018
2503.00,-0.0017
2502.00,-0.0017
2501.00,-0.0016
2500.00,-0.0016
2499.00,-0.0017
2498.00,-0.0017
2497.00,-0.0018
2496.00,-0.0018
2495.00,-0.0018
2494.00,-0.0018
2493.00,-0.0017
2492.00,-0.0017
2491.00,-0.0016
2490.00,-0.0016
2489.00,-0.0016
2488.00,-0.0016
2487.00,-0.0017
2486.00,-0.0018
2485.00,-0.0018
2484.00,-0.0019
2483.00,-0.0018
2482.00,-0.0018
2481.00,-0.0018
2480.00,-0.0017
2479.00,-0.0017
2478.00,-0.0017
2477.00,-0.0017
2476.00,-0.0017
2475.00,-0.0017
2474.00,-0.0018
2473.00,-0.0018
2472.00,-0.0018
2471.00,-0.0018
2470.00,-0.0018
2469.00,-0.0018
2468.00,-0.0018
2467.00,-0.0018
2466.00,-0.0018
2465.00,-0.0018
2464.00,-0.0018
2463.00,-0.0018
2462.00,-0.0018
2461.00,-0.0018
2460.00,-0.0018
2459.00,-0.0017
2458.00,-0.0016
2457.00,-0.0016
2456.00,-0.0017
2455.00,-0.0018
2454.00,-0.0018
2453.00,-0.0018
2452.00,-0.0017
2451.00,-0.0017
2450.00,-0.0016
2449.00,-0.0017
2448.00,-0.0017
2447.00,-0.0017
2446.00,-0.0018
2445.00,-0.0018
2444.00,-0.0018
2443.00,-0.0018
2442.00,-0.0018
2441.00,-0.0017
2440.00,-0.0017
2439.00,-0.0017
2438.00,-0.0018
2437.00,-0.0018
2436.00,-0.0018
2435.00,-0.0018
2434.00,-0.0018
2433.00,-0.0018
2432.00,-0.0017
2431.00,-0.0017
2430.00,-0.0017
2429.00,-0.0017
2428.00,-0.0017
2427.00,-0.0017
2426.00,-0.0017
2425.00,-0.0017
2424.00,-0.0017
2423.00,-0.0017
2422.00,-0.0018
2421.00,-0.0018
2420.00,-0.0018
2419.00,-0.0018
2418.00,-0.0018
2417.00,-0.0018
2416.00,-0.0018
2415.00,-0.0018
2414.00,-0.0017
2413.00,-0.0017
2412.00,-0.0017
2411.00,-0.0017
2410.00,-0.0017
2409.00,-0.0017
2408.00,-0.0017
2407.00,-0.0017
2406.00,-0.0017
2405.00,-0.0017
2404.00,-0.0016
2403.00,-0.0017
2402.00,-0.0017
2401.00,-0.0017
2400.00,-0.0017
2399.00,-0.0017
2398.00,-0.0017
2397.00,-0.0017
2396.00,-0.0017
2395.00,-0.0017
2394.00,-0.0017
2393.00,-0.0016
2392.00,-0.0016
2391.00,-0.0016
2390.00,-0.0017
2389.00,-0.0017
2388.00,-0.0017
2387.00,-0.0017
2386.00,-0.0017
2385.00,-0.0017
2384.00,-0.0017
2383.00,-0.0017
2382.00,-0.0018
2381.00,-0.0018
2380.00,-0.0019
2379.00,-0.0020
2378.00,-0.0020
2377.00,-0.0020
2376.00,-0.0020
2375.00,-0.0019
2374.00,-0.0019
2373.00,-0.0018
2372.00,-0.0017
2371.00,-0.0017
2370.00,-0.0017
2369.00,-0.0016
2368.00,-0.0016
2367.00,-0.0016
2366.00,-0.0016
2365.00,-0.0017
2364.00,-0.0018
2363.00,-0.0018
2362.00,-0.0018
2361.00,-0.0017
2360.00,-0.0016
2359.00,-0.0015
2358.00,-0.0014
2357.00,-0.0012
2356.00,-0.0011
2355.00,-0.0010
2354.00,-0.0010
2353.00,-0.0010
2352.00,-0.0010
2351.00,-0.0012
2350.00,-0.0013
2349.00,-0.0015
2348.00,-0.0018
2347.00,-0.0019
2346.00,-0.0020
2345.00,-0.0019
2344.00,-0.0017
2343.00,-0.0015
2342.00,-0.0014
2341.00,-0.0013
2340.00,-0.0013
2339.00,-0.0014
2338.00,-0.0014
2337.00,-0.0014
2336.00,-0.0014
2335.00,-0.0013
2334.00,-0.0013
2333.00,-0.0012
2332.00,-0.0011
2331.00,-0.0011
2330.00,-0.0010
2329.00,-0.0010
2328.00,-0.0009
2327.00,-0.0010
2326.00,-0.0011
2325.00,-0.0012
2324.00,-0.0012
2323.00,-0.0012
2322.00,-0.0012
2321.00,-0.0012
2320.00,-0.0013
2319.00,-0.0013
2318.00,-0.0013
2317.00,-0.0013
2316.00,-0.0013
2315.00,-0.0013
2314.00,-0.0014
2313.00,-0.0014
2312.00,-0.0014
2311.00,-0.0014
2310.00,-0.0015
2309.00,-0.0015
2308.00,-0.0016
2307.00,-0.0016
2306.00,-0.0016
2305.00,-0.0015
2304.00,-0.0015
2303.00,-0.0015
2302.00,-0.0015
2301.00,-0.0016
2300.00,-0.0016
2299.00,-0.0016
2298.00,-0.0017
2297.00,-0.0017
2296.00,-0.0018
2295.00,-0.0018
2294.00,-0.0019
2293.00,-0.0019
2292.00,-0.0019
2291.00,-0.0019
2290.00,-0.0019
2289.00,-0.0020
2288.00,-0.0020
2287.00,-0.0020
2286.00,-0.0020
2285.00,-0.0019
2284.00,-0.0019
2283.00,-0.0019
2282.00,-0.0018
2281.00,-0.0018
2280.00,-0.0018
2279.00,-0.0018
2278.00,-0.0018
2277.00,-0.0018
2276.00,-0.0018
2275.00,-0.0017
2274.00,-0.0017
2273.00,-0.0017
2272.00,-0.0017
2271.00,-0.0018
2270.00,-0.0019
2269.00,-0.0020
2268.00,-0.0020
2267.00,-0.0019
2266.00,-0.0018
2265.00,-0.0017
2264.00,-0.0018
2263.00,-0.0018
2262.00,-0.0019
2261.00,-0.0019
2260.00,-0.0019
2259.00,-0.0018
2258.00,-0.0017
2257.00,-0.0017
2256.00,-0.0016
2255.00,-0.0016
2254.00,-0.0017
2253.00,-0.0017
2252.00,-0.0017
2251.00,-0.0017
2250.00,-0.0017
2249.00,-0.0017
2248.00,-0.0018
2247.00,-0.0019
2246.00,-0.0020
2245.00,-0.0020
2244.00,-0.0020
2243.00,-0.0019
2242.00,-0.0018
2241.00,-0.0018
2240.00,-0.0019
2239.00,-0.0019
2238.00,-0.0020
2237.00,-0.0020
2236.00,-0.0020
2235.00,-0.0020
2234.00,-0.0020
2233.00,-0.0020
2232.00,-0.0019
2231.00,-0.0019
2230.00,-0.0018
2229.00,-0.0018
2228.00,-0.0017
2227.00,-0.0016
2226.00,-0.0016
2225.00,-0.0017
2224.00,-0.0018
2223.00,-0.0019
2222.00,-0.0019
2221.00,-0.0019
2220.00,-0.0019
2219.00,-0.0020
2218.00,-0.0020
2217.00,-0.0020
2216.00,-0.0018
2215.00,-0.0016
2214.00,-0.0014
2213.00,-0.0014
2212.00,-0.0014
2211.00,-0.0016
2210.00,-0.0018
2209.00,-0.0019
2208.00,-0.0019
2207.00,-0.0019
2206.00,-0.0018
2205.00,-0.0017
2204.00,-0.0017
2203.00,-0.0017
2202.00,-0.0017
2201.00,-0.0017
2200.00,-0.0017
2199.00,-0.0018
2198.00,-0.0019
2197.00,-0.0019
2196.00,-0.0019
2195.00,-0.0019
2194.00,-0.0019
2193.00,-0.0019
2192.00,-0.0020
2191.00,-0.0020
2190.00,-0.0020
2189.00,-0.0019
2188.00,-0.0019
2187.00,-0.0019
2186.00,-0.0019
2185.00,-0.0019
2184.00,-0.0018
2183.00,-0.0016
2182.00,-0.0014
2181.00,-0.0013
2180.00,-0.0013
2179.00,-0.0013
2178.00,-0.0014
2177.00,-0.0015
2176.00,-0.0016
2175.00,-0.0016
2174.00,-0.0016
2173.00,-0.0016
2172.00,-0.0016
2171.00,-0.0018
2170.00,-0.0021
2169.00,-0.0024
2168.00,-0.0024
2167.00,-0.0023
2166.00,-0.0020
2165.00,-0.0018
2164.00,-0.0017
2163.00,-0.0017
2162.00,-0.0017
2161.00,-0.0017
2160.00,-0.0016
2159.00,-0.0014
2158.00,-0.0012
2157.00,-0.0010
2156.00,-0.0010
2155.00,-0.0010
2154.00,-0.0010
2153.00,-0.0010
2152.00,-0.0011
2151.00,-0.0012
2150.00,-0.0012
2149.00,-0.0012
2148.00,-0.0012
2147.00,-0.0013
2146.00,-0.0014
2145.00,-0.0015
2144.00,-0.0016
2143.00,-0.0016
2142.00,-0.0016
2141.00,-0.0015
2140.00,-0.0014
2139.00,-0.0013
2138.00,-0.0013
2137.00,-0.0013
2136.00,-0.0013
2135.00,-0.0014
2134.00,-0.0013
2133.00,-0.0013
2132.00,-0.0013
2131.00,-0.0013
2130.00,-0.0013
2129.00,-0.0013
2128.00,-0.0013
2127.00,-0.0013
2126.00,-0.0014
2125.00,-0.0014
2124.00,-0.0015
2123.00,-0.0015
2122.00,-0.0014
2121.00,-0.0013
2120.00,-0.0013
2119.00,-0.0013
2118.00,-0.0013
2117.00,-0.0013
2116.00,-0.0014
2115.00,-0.0014
2114.00,-0.0014
2113.00,-0.0015
2112.00,-0.0016
2111.00,-0.0016
2110.00,-0.0016
2109.00,-0.0015
2108.00,-0.0015
2107.00,-0.0016
2106.00,-0.0017
2105.00,-0.0017
2104.00,-0.0017
2103.00,-0.0016
2102.00,-0.0016
2101.00,-0.0016
2100.00,-0.0016
2099.00,-0.0016
2098.00,-0.0015
2097.00,-0.0014
2096.00,-0.0014
2095.00,-0.0013
2094.00,-0.0013
2093.00,-0.0013
2092.00,-0.0012
2091.00,-0.0012
2090.00,-0.0012
2089.00,-0.0012
2088.00,-0.0013
2087.00,-0.0013
2086.00,-0.0013
2085.00,-0.0013
2084.00,-0.0014
2083.00,-0.0014
2082.00,-0.0015
2081.00,-0.0016
2080.00,-0.0016
2079.00,-0.0016
2078.00,-0.0016
2077.00,-0.0015
2076.00,-0.0014
2075.00,-0.0015
2074.00,-0.0016
2073.00,-0.0017
2072.00,-0.0017
2071.00,-0.0017
2070.00,-0.0016
2069.00,-0.0015
2068.00,-0.0014
2067.00,-0.0013
2066.00,-0.0013
2065.00,-0.0013
2064.00,-0.0013
2063.00,-0.0013
2062.00,-0.0013
2061.00,-0.0013
2060.00,-0.0013
2059.00,-0.0012
2058.00,-0.0012
2057.00,-0.0011
2056.00,-0.0011
2055.00,-0.0011
2054.00,-0.0011
2053.00,-0.0012
2052.00,-0.0013
2051.00,-0.0014
2050.00,-0.0015
2049.00,-0.0015
2048.00,-0.0015
2047.00,-0.0015
2046.00,-0.0015
2045.00,-0.0015
2044.00,-0.0015
2043.00,-0.0015
2042.00,-0.0015
2041.00,-0.0014
2040.00,-0.0014
2039.00,-0.0014
2038.00,-0.0014
2037.00,-0.0013
2036.00,-0.0012
2035.00,-0.0012
2034.00,-0.0012
2033.00,-0.0012
2032.00,-0.0012
2031.00,-0.0012
2030.00,-0.0012
2029.00,-0.0012
2028.00,-0.0013
2027.00,-0.0013
2026.00,-0.0012
2025.00,-0.0012
2024.00,-0.0012
2023.00,-0.0011
2022.00,-0.0010
2021.00,-0.0010
2020.00,-0.0010
2019.00,-0.0011
2018.00,-0.0013
2017.00,-0.0015
2016.00,-0.0015
2015.00,-0.0014
2014.00,-0.0013
2013.00,-0.0012
2012.00,-0.0013
2011.00,-0.0014
2010.00,-0.0015
2009.00,-0.0014
2008.00,-0.0013
2007.00,-0.0013
2006.00,-0.0012
2005.00,-0.0011
2004.00,-0.0009
2003.00,-0.0008
2002.00,-0.0008
2001.00,-0.0009
2000.00,-0.0010
1999.00,-0.0010
1998.00,-0.0011
1997.00,-0.0010
1996.00,-0.0010
1995.00,-0.0010
1994.00,-0.0010
1993.00,-0.0009
1992.00,-0.0010
1991.00,-0.0011
1990.00,-0.0011
1989.00,-0.0012
1988.00,-0.0013
1987.00,-0.0014
1986.00,-0.0016
1985.00,-0.0016
1984.00,-0.0016
1983.00,-0.0015
1982.00,-0.0014
1981.00,-0.0014
1980.00,-0.0014
1979.00,-0.0013
1978.00,-0.0011
1977.00,-0.0009
1976.00,-0.0007
1975.00,-0.0007
1974.00,-0.0007
1973.00,-0.0008
1972.00,-0.0009
1971.00,-0.0010
1970.00,-0.0009
1969.00,-0.0008
1968.00,-0.0006
1967.00,-0.0006
1966.00,-0.0007
1965.00,-0.0009
1964.00,-0.0009
1963.00,-0.0008
1962.00,-0.0007
1961.00,-0.0006
1960.00,-0.0007
1959.00,-0.0008
1958.00,-0.0009
1957.00,-0.0009
1956.00,-0.0010
1955.00,-0.0010
1954.00,-0.0010
1953.00,-0.0009
1952.00,-0.0009
1951.00,-0.0010
1950.00,-0.0012
1949.00,-0.0013
1948.00,-0.0013
1947.00,-0.0012
1946.00,-0.0011
1945.00,-0.0009
1944.00,-0.0008
1943.00,-0.0007
1942.00,-0.0008
1941.00,-0.0008
1940.00,-0.0009
1939.00,-0.0010
1938.00,-0.0010
1937.00,-0.0010
1936.00,-0.0009
1935.00,-0.0009
1934.00,-0.0008
1933.00,-0.0008
1932.00,-0.0009
1931.00,-0.0009
1930.00,-0.0009
1929.00,-0.0009
1928.00,-0.0009
1927.00,-0.0009
1926.00,-0.0008
1925.00,-0.0006
1924.00,-0.0005
1923.00,-0.0006
1922.00,-0.0008
1921.00,-0.0010
1920.00,-0.0011
1919.00,-0.0011
1918.00,-0.0011
1917.00,-0.0011
1916.00,-0.0011
1915.00,-0.0012
1914.00,-0.0012
1913.00,-0.0012
1912.00,-0.0011
1911.00,-0.0010
1910.00,-0.0009
1909.00,-0.0009
1908.00,-0.0010
1907.00,-0.0011
1906.00,-0.0012
1905.00,-0.0012
1904.00,-0.0011
1903.00,-0.0011
1902.00,-0.0011
1901.00,-0.0011
1900.00,-0.0012
1899.00,-0.0013
1898.00,-0.0013
1897.00,-0.0013
1896.00,-0.0012
1895.00,-0.0012
1894.00,-0.0012
1893.00,-0.0012
1892.00,-0.0013
1891.00,-0.0013
1890.00,-0.0013
1889.00,-0.0013
1888.00,-0.0013
1887.00,-0.0013
1886.00,-0.0012
1885.00,-0.0011
1884.00,-0.0011
1883.00,-0.0011
1882.00,-0.0011
1881.00,-0.0012
1880.00,-0.0013
1879.00,-0.0013
1878.00,-0.0014
1877.00,-0.0014
1876.00,-0.0014
1875.00,-0.0014
1874.00,-0.0014
1873.00,-0.0013
1872.00,-0.0012
1871.00,-0.0012
1870.00,-0.0012
1869.00,-0.0013
1868.00,-0.0014
1867.00,-0.0013
1866.00,-0.0013
1865.00,-0.0013
1864.00,-0.0013
1863.00,-0.0013
1862.00,-0.0014
1861.00,-0.0014
1860.00,-0.0014
1859.00,-0.0014
1858.00,-0.0013
1857.00,-0.0013
1856.00,-0.0012
1855.00,-0.0012
1854.00,-0.0013
1853.00,-0.0014
1852.00,-0.0014
1851.00,-0.0014
1850.00,-0.0014
1849.00,-0.0014
1848.00,-0.0015
1847.00,-0.0016
1846.00,-0.0016
1845.00,-0.0017
1844.00,-0.0017
1843.00,-0.0017
1842.00,-0.0016
1841.00,-0.0016
1840.00,-0.0015
1839.00,-0.0015
1838.00,-0.0015
1837.00,-0.0015
1836.00,-0.0016
1835.00,-0.0016
1834.00,-0.0015
1833.00,-0.0015
1832.00,-0.0014
1831.00,-0.0013
1830.00,-0.0013
1829.00,-0.0013
1828.00,-0.0013
1827.00,-0.0013
1826.00,-0.0013
1825.00,-0.0014
1824.00,-0.0014
1823.00,-0.0015
1822.00,-0.0016
1821.00,-0.0016
1820.00,-0.0015
1819.00,-0.0015
1818.00,-0.0015
1817.00,-0.0014
1816.00,-0.0014
1815.00,-0.0014
1814.00,-0.0015
1813.00,-0.0016
1812.00,-0.0016
1811.00,-0.0017
1810.00,-0.0017
1809.00,-0.0017
1808.00,-0.0017
1807.00,-0.0017
1806.00,-0.0017
1805.00,-0.0016
1804.00,-0.0016
1803.00,-0.0015
1802.00,-0.0015
1801.00,-0.0015
1800.00,-0.0015
1799.00,-0.0016
1798.00,-0.0016
1797.00,-0.0017
1796.00,-0.0017
1795.00,-0.0018
1794.00,-0.0018
1793.00,-0.0018
1792.00,-0.0017
1791.00,-0.0016
1790.00,-0.0016
1789.00,-0.0016
1788.00,-0.0017
1787.00,-0.0018
1786.00,-0.0019
1785.00,-0.0019
1784.00,-0.0018
1783.00,-0.0017
1782.00,-0.0017
1781.00,-0.0017
1780.00,-0.0017
1779.00,-0.0018
1778.00,-0.0018
1777.00,-0.0018
1776.00,-0.0018
1775.00,-0.0017
1774.00,-0.0017
1773.00,-0.0018
1772.00,-0.0019
1771.00,-0.0019
1770.00,-0.0019
1769.00,-0.0019
1768.00,-0.0019
1767.00,-0.0018
1766.00,-0.0018
1765.00,-0.0018
1764.00,-0.0018
1763.00,-0.0018
1762.00,-0.0018
1761.00,-0.0018
1760.00,-0.0018
1759.00,-0.0018
1758.00,-0.0018
1757.00,-0.0019
1756.00,-0.0019
1755.00,-0.0020
1754.00,-0.0020
1753.00,-0.0021
1752.00,-0.0022
1751.00,-0.0022
1750.00,-0.0022
1749.00,-0.0021
1748.00,-0.0021
1747.00,-0.0020
1746.00,-0.0019
1745.00,-0.0019
1744.00,-0.0019
1743.00,-0.0019
1742.00,-0.0020
1741.00,-0.0020
1740.00,-0.0021
1739.00,-0.0021
1738.00,-0.0021
1737.00,-0.0021
1736.00,-0.0021
1735.00,-0.0021
1734.00,-0.0020
1733.00,-0.0019
1732.00,-0.0017
1731.00,-0.0017
1730.00,-0.0016
1729.00,-0.0016
1728.00,-0.0016
1727.00,-0.0016
1726.00,-0.0016
1725.00,-0.0015
1724.00,-0.0015
1723.00,-0.0015
1722.00,-0.0016
1721.00,-0.0016
1720.00,-0.0016
1719.00,-0.0017
1718.00,-0.0019
1717.00,-0.0019
1716.00,-0.0018
1715.00,-0.0017
1714.00,-0.0017
1713.00,-0.0016
1712.00,-0.0016
1711.00,-0.0017
1710.00,-0.0017
1709.00,-0.0017
1708.00,-0.0016
1707.00,-0.0015
1706.00,-0.0015
1705.00,-0.0015
1704.00,-0.0015
1703.00,-0.0015
1702.00,-0.0014
1701.00,-0.0015
1700.00,-0.0016
1699.00,-0.0017
1698.00,-0.0016
1697.00,-0.0014
1696.00,-0.0013
1695.00,-0.0013
1694.00,-0.0014
1693.00,-0.0015
1692.00,-0.0014
1691.00,-0.0014
1690.00,-0.0014
1689.00,-0.0015
1688.00,-0.0014
1687.00,-0.0013
1686.00,-0.0012
1685.00,-0.0012
1684.00,-0.0012
1683.00,-0.0012
1682.00,-0.0012
1681.00,-0.0012
1680.00,-0.0012
1679.00,-0.0013
1678.00,-0.0013
1677.00,-0.0014
1676.00,-0.0014
1675.00,-0.0014
1674.00,-0.0014
1673.00,-0.0013
1672.00,-0.0012
1671.00,-0.0012
1670.00,-0.0011
1669.00,-0.0011
1668.00,-0.0010
1667.00,-0.0010
1666.00,-0.0010
1665.00,-0.0009
1664.00,-0.0010
1663.00,-0.0010
1662.00,-0.0010
1661.00,-0.0010
1660.00,-0.0010
1659.00,-0.0011
1658.00,-0.0011
1657.00,-0.0011
1656.00,-0.0010
1655.00,-0.0007
1654.00,-0.0004
1653.00,-0.0001
1652.00,-0.0003
1651.00,-0.0006
1650.00,-0.0008
1649.00,-0.0009
1648.00,-0.0011
1647.00,-0.0011
1646.00,-0.0010
1645.00,-0.0008
1644.00,-0.0007
1643.00,-0.0007
1642.00,-0.0007
1641.00,-0.0007
1640.00,-0.0008
1639.00,-0.0008
1638.00,-0.0008
1637.00,-0.0008
1636.00,-0.0007
1635.00,-0.0005
1634.00,-0.0005
1633.00,-0.0005
1632.00,-0.0005
1631.00,-0.0005
1630.00,-0.0005
1629.00,-0.0004
1628.00,-0.0004
1627.00,-0.0004
1626.00,-0.0003
1625.00,-0.0003
1624.00,-0.0003
1623.00,-0.0004
1622.00,-0.0003
1621.00,-0.0003
1620.00,-0.0003
1619.00,-0.0003
1618.00,-0.0002
1617.00,-0.0002
1616.00,-0.0002
1615.00,-0.0002
1614.00,-0.0002
1613.00,-0.0002
1612.00,-0.0002
1611.00,-0.0002
1610.00,-0.0002
1609.00,-0.0001
1608.00,-0.0000
1607.00,-0.0000
1606.00,-0.0000
1605.00,-0.0000
1604.00,-0.0000
1603.00,-0.0000
1602.00,0.0001
1601.00,0.0001
1600.00,0.0002
1599.00,0.0002
1598.00,0.0002
1597.00,0.0002
1596.00,0.0002
1595.00,0.0002
1594.00,0.0002
1593.00,0.0002
1592.00,0.0002
1591.00,0.0002
1590.00,0.0002
1589.00,0.0002
1588.00,0.0002
1587.00,0.0002
1586.00,0.0002
1585.00,0.0001
1584.00,0.0001
1583.00,0.0001
1582.00,0.0001
1581.00,0.0001
1580.00,0.0002
1579.00,0.0002
1578.00,0.0003
1577.00,0.0003
1576.00,0.0001
1575.00,0.0001
1574.00,0.0000
1573.00,0.0001
1572.00,0.0001
1571.00,0.0001
1570.00,0.0000
1569.00,-0.0000
1568.00,-0.0001
1567.00,-0.0001
1566.00,-0.0001
1565.00,-0.0001
1564.00,-0.0001
1563.00,-0.0001
1562.00,0.0001
1561.00,0.0004
1560.00,0.0004
1559.00,0.0003
1558.00,0.0002
1557.00,-0.0000
1556.00,-0.0003
1555.00,-0.0004
1554.00,-0.0004
1553.00,-0.0003
1552.00,-0.0003
1551.00,-0.0002
1550.00,-0.0003
1549.00,-0.0003
1548.00,-0.0004
1547.00,-0.0005
1546.00,-0.0005
1545.00,-0.0005
1544.00,-0.0006
1543.00,-0.0008
1542.00,-0.0010
1541.00,-0.0010
1540.00,-0.0007
1539.00,-0.0003
1538.00,-0.0003
1537.00,-0.0005
1536.00,-0.0006
1535.00,-0.0005
1534.00,-0.0005
1533.00,-0.0004
1532.00,-0.0004
1531.00,-0.0005
1530.00,-0.0006
1529.00,-0.0007
1528.00,-0.0007
1527.00,-0.0009
1526.00,-0.0010
1525.00,-0.0011
1524.00,-0.0011
1523.00,-0.0012
1522.00,-0.0012
1521.00,-0.0010
1520.00,-0.0008
1519.00,-0.0007
1518.00,-0.0006
1517.00,-0.0006
1516.00,-0.0007
1515.00,-0.0008
1514.00,-0.0010
1513.00,-0.0011
1512.00,-0.0011
1511.00,-0.0010
1510.00,-0.0008
1509.00,-0.0007
1508.00,-0.0007
1507.00,-0.0007
1506.00,-0.0007
1505.00,-0.0009
1504.00,-0.0011
1503.00,-0.0011
1502.00,-0.0012
1501.00,-0.0012
1500.00,-0.0013
1499.00,-0.0014
1498.00,-0.0014
1497.00,-0.0014
1496.00,-0.0013
1495.00,-0.0012
1494.00,-0.0011
1493.00,-0.0011
1492.00,-0.0012
1491.00,-0.0011
1490.00,-0.0011
1489.00,-0.0009
1488.00,-0.0007
1487.00,-0.0007
1486.00,-0.0007
1485.00,-0.0008
1484.00,-0.0009
1483.00,-0.0009
1482.00,-0.0010
1481.00,-0.0010
1480.00,-0.0009
1479.00,-0.0009
1478.00,-0.0009
1477.00,-0.0010
1476.00,-0.0011
1475.00,-0.0013
1474.00,-0.0015
1473.00,-0.0016
1472.00,-0.0015
1471.00,-0.0014
1470.00,-0.0014
1469.00,-0.0014
1468.00,-0.0014
1467.00,-0.0014
1466.00,-0.0014
1465.00,-0.0014
1464.00,-0.0013
1463.00,-0.0013
1462.00,-0.0012
1461.00,-0.0012
1460.00,-0.0012
1459.00,-0.0012
1458.00,-0.0014
1457.00,-0.0014
1456.00,-0.0013
1455.00,-0.0012
1454.00,-0.0011
1453.00,-0.0010
1452.00,-0.0010
1451.00,-0.0009
1450.00,-0.0009
1449.00,-0.0008
1448.00,-0.0008
1447.00,-0.0008
1446.00,-0.0008
1445.00,-0.0008
1444.00,-0.0008
1443.00,-0.0008
1442.00,-0.0008
1441.00,-0.0009
1440.00,-0.0009
1439.00,-0.0009
1438.00,-0.0010
1437.00,-0.0010
1436.00,-0.0008
1435.00,-0.0007
1434.00,-0.0006
1433.00,-0.0006
1432.00,-0.0006
1431.00,-0.0006
1430.00,-0.0006
1429.00,-0.0006
1428.00,-0.0006
1427.00,-0.0006
1426.00,-0.0006
1425.00,-0.0006
1424.00,-0.0006
1423.00,-0.0006
1422.00,-0.0006
1421.00,-0.0006
1420.00,-0.0006
1419.00,-0.0005
1418.00,-0.0004
1417.00,-0.0004
1416.00,-0.0004
1415.00,-0.0004
1414.00,-0.0005
1413.00,-0.0005
1412.00,-0.0005
1411.00,-0.0004
1410.00,-0.0005
1409.00,-0.0005
1408.00,-0.0005
1407.00,-0.0005
1406.00,-0.0005
1405.00,-0.0005
1404.00,-0.0005
1403.00,-0.0005
1402.00,-0.0005
1401.00,-0.0005
1400.00,-0.0005
1399.00,-0.0005
1398.00,-0.0005
1397.00,-0.0005
1396.00,-0.0005
1395.00,-0.0005
1394.00,-0.0006
1393.00,-0.0006
1392.00,-0.0007
1391.00,-0.0007
1390.00,-0.0007
1389.00,-0.0007
1388.00,-0.0007
1387.00,-0.0006
1386.00,-0.0005
1385.00,-0.0005
1384.00,-0.0005
1383.00,-0.0006
1382.00,-0.0006
1381.00,-0.0006
1380.00,-0.0006
1379.00,-0.0007
1378.00,-0.0007
1377.00,-0.0007
1376.00,-0.0006
1375.00,-0.0005
1374.00,-0.0005
1373.00,-0.0004
1372.00,-0.0005
1371.00,-0.0005
1370.00,-0.0005
1369.00,-0.0004
1368.00,-0.0004
1367.00,-0.0005
1366.00,-0.0006
1365.00,-0.0005
1364.00,-0.0005
1363.00,-0.0004
1362.00,-0.0004
1361.00,-0.0004
1360.00,-0.0004
1359.00,-0.0004
1358.00,-0.0004
1357.00,-0.0005
1356.00,-0.0005
1355.00,-0.0006
1354.00,-0.0006
1353.00,-0.0006
1352.00,-0.0006
1351.00,-0.0006
1350.00,-0.0006
1349.00,-0.0006
1348.00,-0.0006
1347.00,-0.0006
1346.00,-0.0006
1345.00,-0.0006
1344.00,-0.0006
1343.00,-0.0006
1342.00,-0.0006
1341.00,-0.0005
1340.00,-0.0005
1339.00,-0.0004
1338.00,-0.0004
1337.00,-0.0005
1336.00,-0.0005
1335.00,-0.0006
1334.00,-0.0006
1333.00,-0.0006
1332.00,-0.0007
1331.00,-0.0007
1330.00,-0.0007
1329.00,-0.0007
1328.00,-0.0008
1327.00,-0.0008
1326.00,-0.0008
1325.00,-0.0007
1324.00,-0.0007
1323.00,-0.0007
1322.00,-0.0007
1321.00,-0.0008
1320.00,-0.0008
1319.00,-0.0008
1318.00,-0.0007
1317.00,-0.0007
1316.00,-0.0006
1315.00,-0.0006
1314.00,-0.0006
1313.00,-0.0007
1312.00,-0.0007
1311.00,-0.0008
1310.00,-0.0008
1309.00,-0.0008
1308.00,-0.0009
1307.00,-0.0009
1306.00,-0.0009
1305.00,-0.0009
1304.00,-0.0009
1303.00,-0.0009
1302.00,-0.0009
1301.00,-0.0009
1300.00,-0.0008
1299.00,-0.0008
1298.00,-0.0008
1297.00,-0.0009
1296.00,-0.0009
1295.00,-0.0009
1294.00,-0.0009
1293.00,-0.0009
1292.00,-0.0010
1291.00,-0.0010
1290.00,-0.0009
1289.00,-0.0009
1288.00,-0.0009
1287.00,-0.0009
1286.00,-0.0009
1285.00,-0.0010
1284.00,-0.0010
1283.00,-0.0010
1282.00,-0.0011
1281.00,-0.0011
1280.00,-0.0011
1279.00,-0.0010
1278.00,-0.0010
1277.00,-0.0010
1276.00,-0.0010
1275.00,-0.0010
1274.00,-0.0010
1273.00,-0.0010
1272.00,-0.0010
1271.00,-0.0011
1270.00,-0.0012
1269.00,-0.0012
1268.00,-0.0013
1267.00,-0.0013
1266.00,-0.0014
1265.00,-0.0015
1264.00,-0.0017
1263.00,-0.0018
1262.00,-0.0018
1261.00,-0.0018
1260.00,-0.0017
1259.00,-0.0016
1258.00,-0.0016
1257.00,-0.0015
1256.00,-0.0015
1255.00,-0.0015
1254.00,-0.0014
1253.00,-0.0014
1252.00,-0.0013
1251.00,-0.0013
1250.00,-0.0013
1249.00,-0.0013
1248.00,-0.0013
1247.00,-0.0013
1246.00,-0.0013
1245.00,-0.0013
1244.00,-0.0013
1243.00,-0.0013
1242.00,-0.0013
1241.00,-0.0014
1240.00,-0.0014
1239.00,-0.0013
1238.00,-0.0013
1237.00,-0.0013
1236.00,-0.0013
1235.00,-0.0013
1234.00,-0.0013
1233.00,-0.0013
1232.00,-0.0013
1231.00,-0.0012
1230.00,-0.0012
1229.00,-0.0012
1228.00,-0.0012
1227.00,-0.0013
1226.00,-0.0012
1225.00,-0.0012
1224.00,-0.0011
1223.00,-0.0011
1222.00,-0.0011
1221.00,-0.0012
1220.00,-0.0012
1219.00,-0.0013
1218.00,-0.0013
1217.00,-0.0013
1216.00,-0.0013
1215.00,-0.0012
1214.00,-0.0012
1213.00,-0.0013
1212.00,-0.0013
1211.00,-0.0013
1210.00,-0.0013
1209.00,-0.0014
1208.00,-0.0014
1207.00,-0.0014
1206.00,-0.0014
1205.00,-0.0014
1204.00,-0.0014
1203.00,-0.0013
1202.00,-0.0013
1201.00,-0.0013
1200.00,-0.0013
1199.00,-0.0014
1198.00,-0.0014
1197.00,-0.0015
1196.00,-0.0015
1195.00,-0.0014
1194.00,-0.0014
1193.00,-0.0013
1192.00,-0.0014
1191.00,-0.0014
1190.00,-0.0014
1189.00,-0.0014
1188.00,-0.0014
1187.00,-0.0014
1186.00,-0.0014
1185.00,-0.0014
1184.00,-0.0014
1183.00,-0.0014
1182.00,-0.0015
1181.00,-0.0016
1180.00,-0.0016
1179.00,-0.0016
1178.00,-0.0015
1177.00,-0.0015
1176.00,-0.0016
1175.00,-0.0016
1174.00,-0.0016
1173.00,-0.0017
1172.00,-0.0017
1171.00,-0.0018
1170.00,-0.0018
1169.00,-0.0017
1168.00,-0.0017
1167.00,-0.0016
1166.00,-0.0016
1165.00,-0.0017
1164.00,-0.0017
1163.00,-0.0018
1162.00,-0.0018
1161.00,-0.0018
1160.00,-0.0017
1159.00,-0.0017
1158.00,-0.0017
1157.00,-0.0018
1156.00,-0.0018
1155.00,-0.0019
1154.00,-0.0018
1153.00,-0.0018
1152.00,-0.0018
1151.00,-0.0018
1150.00,-0.0018
1149.00,-0.0017
1148.00,-0.0017
1147.00,-0.0016
1146.00,-0.0015
1145.00,-0.0015
1144.00,-0.0016
1143.00,-0.0016
1142.00,-0.0017
1141.00,-0.0018
1140.00,-0.0018
1139.00,-0.0018
1138.00,-0.0018
1137.00,-0.0017
1136.00,-0.0017
1135.00,-0.0017
1134.00,-0.0017
1133.00,-0.0017
1132.00,-0.0016
1131.00,-0.0016
1130.00,-0.0016
1129.00,-0.0016
1128.00,-0.0015
1127.00,-0.0014
1126.00,-0.0014
1125.00,-0.0014
1124.00,-0.0015
1123.00,-0.0016
1122.00,-0.0018
1121.00,-0.0018
1120.00,-0.0018
1119.00,-0.0017
1118.00,-0.0016
1117.00,-0.0016
1116.00,-0.0016
1115.00,-0.0017
1114.00,-0.0017
1113.00,-0.0018
1112.00,-0.0019
1111.00,-0.0019
1110.00,-0.0019
1109.00,-0.0019
1108.00,-0.0018
1107.00,-0.0018
1106.00,-0.0017
1105.00,-0.0017
1104.00,-0.0017
1103.00,-0.0017
1102.00,-0.0017
1101.00,-0.0017
1100.00,-0.0017
1099.00,-0.0017
1098.00,-0.0017
1097.00,-0.0017
1096.00,-0.0018
1095.00,-0.0019
1094.00,-0.0018
1093.00,-0.0017
1092.00,-0.0017
1091.00,-0.0016
1090.00,-0.0016
1089.00,-0.0016
1088.00,-0.0016
1087.00,-0.0017
1086.00,-0.0018
1085.00,-0.0019
1084.00,-0.0019
1083.00,-0.0020
1082.00,-0.0019
1081.00,-0.0019
1080.00,-0.0019
1079.00,-0.0019
1078.00,-0.0018
1077.00,-0.0018
1076.00,-0.0017
1075.00,-0.0017
1074.00,-0.0017
1073.00,-0.0017
1072.00,-0.0016
1071.00,-0.0015
1070.00,-0.0015
1069.00,-0.0015
1068.00,-0.0015
1067.00,-0.0015
1066.00,-0.0016
1065.00,-0.0016
1064.00,-0.0016
1063.00,-0.0017
1062.00,-0.0017
1061.00,-0.0017
1060.00,-0.0017
1059.00,-0.0017
1058.00,-0.0016
1057.00,-0.0015
1056.00,-0.0015
1055.00,-0.0015
1054.00,-0.0015
1053.00,-0.0014
1052.00,-0.0013
1051.00,-0.0012
1050.00,-0.0012
1049.00,-0.0012
1048.00,-0.0012
1047.00,-0.0012
1046.00,-0.0012
1045.00,-0.0012
1044.00,-0.0012
1043.00,-0.0012
1042.00,-0.0011
1041.00,-0.0011
1040.00,-0.0011
1039.00,-0.0011
1038.00,-0.0011
1037.00,-0.0012
1036.00,-0.0012
1035.00,-0.0012
1034.00,-0.0012
1033.00,-0.0011
1032.00,-0.0012
1031.00,-0.0013
1030.00,-0.0015
1029.00,-0.0016
1028.00,-0.0016
1027.00,-0.0017
1026.00,-0.0018
1025.00,-0.0018
1024.00,-0.0018
1023.00,-0.0017
1022.00,-0.0016
1021.00,-0.0015
1020.00,-0.0015
1019.00,-0.0015
1018.00,-0.0015
1017.00,-0.0015
1016.00,-0.0015
1015.00,-0.0014
1014.00,-0.0014
1013.00,-0.0013
1012.00,-0.0013
1011.00,-0.0013
1010.00,-0.0012
1009.00,-0.0012
1008.00,-0.0011
1007.00,-0.0010
1006.00,-0.0010
1005.00,-0.0009
1004.00,-0.0009
1003.00,-0.0010
1002.00,-0.0010
1001.00,-0.0010
1000.00,-0.0010
999.00,-0.0010
998.00,-0.0010
997.00,-0.0010
996.00,-0.0011
995.00,-0.0012
994.00,-0.0012
993.00,-0.0012
992.00,-0.0012
991.00,-0.0011
990.00,-0.0011
989.00,-0.0012
988.00,-0.0012
987.00,-0.0012
986.00,-0.0011
985.00,-0.0011
984.00,-0.0011
983.00,-0.0011
982.00,-0.0011
981.00,-0.0011
980.00,-0.0011
979.00,-0.0012
978.00,-0.0013
977.00,-0.0013
976.00,-0.0013
975.00,-0.0013
974.00,-0.0012
973.00,-0.0012
972.00,-0.0013
971.00,-0.0013
970.00,-0.0013
969.00,-0.0014
968.00,-0.0014
967.00,-0.0015
966.00,-0.0015
965.00,-0.0014
964.00,-0.0014
963.00,-0.0013
962.00,-0.0013
961.00,-0.0014
960.00,-0.0014
959.00,-0.0015
958.00,-0.0015
957.00,-0.0016
956.00,-0.0015
955.00,-0.0014
954.00,-0.0013
953.00,-0.0012
952.00,-0.0013
951.00,-0.0013
950.00,-0.0014
949.00,-0.0014
948.00,-0.0014
947.00,-0.0014
946.00,-0.0013
945.00,-0.0012
944.00,-0.0012
943.00,-0.0012
942.00,-0.0012
941.00,-0.0012
940.00,-0.0012
939.00,-0.0012
938.00,-0.0012
937.00,-0.0011
936.00,-0.0011
935.00,-0.0010
934.00,-0.0010
933.00,-0.0010
932.00,-0.0010
931.00,-0.0011
930.00,-0.0011
929.00,-0.0010
928.00,-0.0010
927.00,-0.0009
926.00,-0.0009
925.00,-0.0008
924.00,-0.0008
923.00,-0.0007
922.00,-0.0007
921.00,-0.0007
920.00,-0.0007
919.00,-0.0007
918.00,-0.0006
917.00,-0.0005
916.00,-0.0005
915.00,-0.0006
914.00,-0.0007
913.00,-0.0007
912.00,-0.0007
911.00,-0.0007
910.00,-0.0007
909.00,-0.0006
908.00,-0.0006
907.00,-0.0007
906.00,-0.0008
905.00,-0.0009
904.00,-0.0010
903.00,-0.0011
902.00,-0.0011
901.00,-0.0011
900.00,-0.0010
899.00,-0.0010
898.00,-0.0009
897.00,-0.0009
896.00,-0.0008
895.00,-0.0008
894.00,-0.0008
893.00,-0.0007
892.00,-0.0007
891.00,-0.0007
890.00,-0.0006
889.00,-0.0006
888.00,-0.0005
887.00,-0.0005
886.00,-0.0004
885.00,-0.0005
884.00,-0.0005
883.00,-0.0006
882.00,-0.0006
881.00,-0.0005
880.00,-0.0004
879.00,-0.0004
878.00,-0.0004
877.00,-0.0005
876.00,-0.0005
875.00,-0.0006
874.00,-0.0006
873.00,-0.0007
872.00,-0.0008
871.00,-0.0009
870.00,-0.0010
869.00,-0.0010
868.00,-0.0010
867.00,-0.0010
866.00,-0.0009
865.00,-0.0008
864.00,-0.0007
863.00,-0.0007
862.00,-0.0007
861.00,-0.0008
860.00,-0.0009
859.00,-0.0009
858.00,-0.0009
857.00,-0.0008
856.00,-0.0006
855.00,-0.0005
854.00,-0.0005
853.00,-0.0006
852.00,-0.0007
851.00,-0.0008
850.00,-0.0008
849.00,-0.0007
848.00,-0.0007
847.00,-0.0006
846.00,-0.0005
845.00,-0.0005
844.00,-0.0006
843.00,-0.0006
842.00,-0.0005
841.00,-0.0005
840.00,-0.0004
839.00,-0.0004
838.00,-0.0002
837.00,-0.0000
836.00,0.0001
835.00,0.0001
834.00,0.0000
833.00,-0.0001
832.00,-0.0001
831.00,-0.0001
830.00,-0.0000
829.00,-0.0001
828.00,-0.0002
827.00,-0.0003
826.00,-0.0004
825.00,-0.0006
824.00,-0.0007
823.00,-0.0007
822.00,-0.0007
821.00,-0.0006
820.00,-0.0005
819.00,-0.0004
818.00,-0.0004
817.00,-0.0005
816.00,-0.0007
815.00,-0.0009
814.00,-0.0010
813.00,-0.0011
812.00,-0.0010
811.00,-0.0009
810.00,-0.0007
809.00,-0.0005
808.00,-0.0005
807.00,-0.0005
806.00,-0.0006
805.00,-0.0007
804.00,-0.0008
803.00,-0.0009
802.00,-0.0008
801.00,-0.0007
800.00,-0.0006
799.00,-0.0007
798.00,-0.0009
797.00,-0.0010
796.00,-0.0010
795.00,-0.0009
794.00,-0.0007
793.00,-0.0005
792.00,-0.0004
791.00,-0.0003
790.00,-0.0002
789.00,-0.0002
788.00,-0.0001
787.00,-0.0001
786.00,-0.0001
785.00,-0.0002
784.00,-0.0002
783.00,-0.0001
782.00,-0.0000
781.00,0.0001
780.00,0.0002
779.00,0.0002
778.00,0.0001
777.00,0.0001
776.00,0.0000
775.00,0.0000
774.00,0.0001
773.00,0.0003
772.00,0.0004
771.00,0.0004
770.00,0.0003
769.00,0.0001
768.00,0.0000
767.00,-0.0001
766.00,-0.0001
765.00,-0.0001
764.00,-0.0000
763.00,0.0000
762.00,0.0001
761.00,0.0001
760.00,0.0002
759.00,0.0004
758.00,0.0006
757.00,0.0008
756.00,0.0008
755.00,0.0007
754.00,0.0005
753.00,0.0003
752.00,0.0003
751.00,0.0004
750.00,0.0005
749.00,0.0006
748.00,0.0006
747.00,0.0006
746.00,0.0006
745.00,0.0006
744.00,0.0006
743.00,0.0006
742.00,0.0005
741.00,0.0004
740.00,0.0003
739.00,0.0002
738.00,0.0002
737.00,0.0002
736.00,0.0002
735.00,0.0002
734.00,0.0001
733.00,0.0001
732.00,0.0002
731.00,0.0004
730.00,0.0006
729.00,0.0007
728.00,0.0007
727.00,0.0006
726.00,0.0005
725.00,0.0006
724.00,0.0006
723.00,0.0005
722.00,0.0005
721.00,0.0004
720.00,0.0004
719.00,0.0004
718.00,0.0004
717.00,0.0004
716.00,0.0005
715.00,0.0007
714.00,0.0009
713.00,0.0010
712.00,0.0012
711.00,0.0013
710.00,0.0011
709.00,0.0008
708.00,0.0005
707.00,0.0004
706.00,0.0006
705.00,0.0010
704.00,0.0013
703.00,0.0015
702.00,0.0014
701.00,0.0013
700.00,0.0011
699.00,0.0010
698.00,0.0010
697.00,0.0011
696.00,0.0011
695.00,0.0009
694.00,0.0006
693.00,0.0003
692.00,0.0002
691.00,0.0005
690.00,0.0010
689.00,0.0011
688.00,0.0009
687.00,0.0004
686.00,0.0000
685.00,-0.0001
684.00,-0.0000
683.00,0.0003
682.00,0.0006
681.00,0.0007
680.00,0.0007
679.00,0.0005
678.00,0.0005
677.00,0.0006
676.00,0.0009
675.00,0.0010
674.00,0.0009
673.00,0.0008
672.00,0.0005
671.00,0.0003
670.00,0.0002
669.00,0.0004
668.00,0.0015
667.00,0.0026
666.00,0.0030
665.00,0.0028
664.00,0.0022
663.00,0.0014
662.00,0.0007
661.00,0.0005
660.00,0.0010
659.00,0.0016
658.00,0.0019
657.00,0.0017
656.00,0.0016
655.00,0.0019
654.00,0.0020
653.00,0.0021
652.00,0.0019
651.00,0.0014
650.00,0.0008
