Created as New Dataset,
cm-1,A
4000.00,0.0139
3999.00,0.0139
3998.00,0.0139
3997.00,0.0139
3996.00,0.0139
3995.00,0.0139
3994.00,0.0140
3993.00,0.0140
3992.00,0.0140
3991.00,0.0140
3990.00,0.0139
3989.00,0.0139
3988.00,0.0139
3987.00,0.0139
3986.00,0.0139
3985.00,0.0139
3984.00,0.0138
3983.00,0.0138
3982.00,0.0139
3981.00,0.0139
3980.00,0.0140
3979.00,0.0140
3978.00,0.0141
3977.00,0.0141
3976.00,0.0141
3975.00,0.0141
3974.00,0.0141
3973.00,0.0141
3972.00,0.0141
3971.00,0.0140
3970.00,0.0140
3969.00,0.0139
3968.00,0.0138
3967.00,0.0138
3966.00,0.0138
3965.00,0.0139
3964.00,0.0139
3963.00,0.0140
3962.00,0.0140
3961.00,0.0140
3960.00,0.0141
3959.00,0.0141
3958.00,0.0141
3957.00,0.0140
3956.00,0.0140
3955.00,0.0140
3954.00,0.0140
3953.00,0.0141
3952.00,0.0141
3951.00,0.0142
3950.00,0.0142
3949.00,0.0142
3948.00,0.0143
3947.00,0.0143
3946.00,0.0144
3945.00,0.0145
3944.00,0.0145
3943.00,0.0144
3942.00,0.0143
3941.00,0.0142
3940.00,0.0142
3939.00,0.0142
3938.00,0.0141
3937.00,0.0140
3936.00,0.0140
3935.00,0.0142
3934.00,0.0143
3933.00,0.0143
3932.00,0.0143
3931.00,0.0144
3930.00,0.0144
3929.00,0.0144
3928.00,0.0144
3927.00,0.0145
3926.00,0.0145
3925.00,0.0144
3924.00,0.0144
3923.00,0.0144
3922.00,0.0145
3921.00,0.0144
3920.00,0.0144
3919.00,0.0144
3918.00,0.0144
3917.00,0.0144
3916.00,0.0143
3915.00,0.0143
3914.00,0.0142
3913.00,0.0141
3912.00,0.0140
3911.00,0.0139
3910.00,0.0140
3909.00,0.0141
3908.00,0.0143
3907.00,0.0145
3906.00,0.0147
3905.00,0.0147
3904.00,0.0148
3903.00,0.0151
3902.00,0.0154
3901.00,0.0156
3900.00,0.0155
3899.00,0.0152
3898.00,0.0149
3897.00,0.0147
3896.00,0.0146
3895.00,0.0145
3894.00,0.0145
3893.00,0.0144
3892.00,0.0143
3891.00,0.0142
3890.00,0.0142
3889.00,0.0145
3888.00,0.0148
3887.00,0.0148
3886.00,0.0145
3885.00,0.0144
3884.00,0.0148
3883.00,0.0152
3882.00,0.0154
3881.00,0.0151
3880.00,0.0147
3879.00,0.0145
3878.00,0.0146
3877.00,0.0147
3876.00,0.0147
3875.00,0.0145
3874.00,0.0144
3873.00,0.0147
3872.00,0.0150
3871.00,0.0151
3870.00,0.0148
3869.00,0.0146
3868.00,0.0148
3867.00,0.0151
3866.00,0.0151
3865.00,0.0148
3864.00,0.0146
3863.00,0.0147
3862.00,0.0148
3861.00,0.0147
3860.00,0.0145
3859.00,0.0144
3858.00,0.0144
3857.00,0.0146
3856.00,0.0148
3855.00,0.0148
3854.00,0.0146
3853.00,0.0147
3852.00,0.0149
3851.00,0.0150
3850.00,0.0149
3849.00,0.0146
3848.00,0.0143
3847.00,0.0142
3846.00,0.0142
3845.00,0.0142
3844.00,0.0142
3843.00,0.0142
3842.00,0.0144
3841.00,0.0147
3840.00,0.0148
3839.00,0.0148
3838.00,0.0148
3837.00,0.0148
3836.00,0.0149
3835.00,0.0149
3834.00,0.0148
3833.00,0.0146
3832.00,0.0144
3831.00,0.0142
3830.00,0.0143
3829.00,0.0144
3828.00,0.0144
3827.00,0.0142
3826.00,0.0140
3825.00,0.0142
3824.00,0.0146
3823.00,0.0148
3822.00,0.0145
3821.00,0.0142
3820.00,0.0143
3819.00,0.0148
3818.00,0.0150
3817.00,0.0148
3816.00,0.0143
3815.00,0.0141
3814.00,0.0142
3813.00,0.0143
3812.00,0.0141
3811.00,0.0139
3810.00,0.0138
3809.00,0.0139
3808.00,0.0138
3807.00,0.0136
3806.00,0.0136
3805.00,0.0140
3804.00,0.0145
3803.00,0.0146
3802.00,0.0143
3801.00,0.0142
3800.00,0.0144
3799.00,0.0147
3798.00,0.0148
3797.00,0.0145
3796.00,0.0141
3795.00,0.0140
3794.00,0.0141
3793.00,0.0141
3792.00,0.0140
3791.00,0.0138
3790.00,0.0138
3789.00,0.0138
3788.00,0.0138
3787.00,0.0138
3786.00,0.0138
3785.00,0.0137
3784.00,0.0138
3783.00,0.0139
3782.00,0.0140
3781.00,0.0140
3780.00,0.0139
3779.00,0.0138
3778.00,0.0138
3777.00,0.0140
3776.00,0.0140
3775.00,0.0139
3774.00,0.0137
3773.00,0.0138
3772.00,0.0138
3771.00,0.0138
3770.00,0.0138
3769.00,0.0139
3768.00,0.0142
3767.00,0.0144
3766.00,0.0143
3765.00,0.0140
3764.00,0.0140
3763.00,0.0141
3762.00,0.0143
3761.00,0.0142
3760.00,0.0141
3759.00,0.0141
3758.00,0.0142
3757.00,0.0142
3756.00,0.0142
3755.00,0.0143
3754.00,0.0143
3753.00,0.0141
3752.00,0.0140
3751.00,0.0142
3750.00,0.0144
3749.00,0.0146
3748.00,0.0149
3747.00,0.0154
3746.00,0.0155
3745.00,0.0149
3744.00,0.0144
3743.00,0.0143
3742.00,0.0145
3741.00,0.0145
3740.00,0.0144
3739.00,0.0143
3738.00,0.0144
3737.00,0.0146
3736.00,0.0147
3735.00,0.0149
3734.00,0.0151
3733.00,0.0150
3732.00,0.0146
3731.00,0.0143
3730.00,0.0143
3729.00,0.0143
3728.00,0.0143
3727.00,0.0142
3726.00,0.0142
3725.00,0.0143
3724.00,0.0145
3723.00,0.0145
3722.00,0.0144
3721.00,0.0143
3720.00,0.0143
3719.00,0.0142
3718.00,0.0140
3717.00,0.0139
3716.00,0.0139
3715.00,0.0141
3714.00,0.0141
3713.00,0.0141
3712.00,0.0140
3711.00,0.0142
3710.00,0.0144
3709.00,0.0144
3708.00,0.0142
3707.00,0.0140
3706.00,0.0138
3705.00,0.0138
3704.00,0.0138
3703.00,0.0138
3702.00,0.0139
3701.00,0.0139
3700.00,0.0139
3699.00,0.0140
3698.00,0.0140
3697.00,0.0139
3696.00,0.0138
3695.00,0.0138
3694.00,0.0140
3693.00,0.0141
3692.00,0.0142
3691.00,0.0143
3690.00,0.0145
3689.00,0.0146
3688.00,0.0146
3687.00,0.0146
3686.00,0.0146
3685.00,0.0146
3684.00,0.0144
3683.00,0.0142
3682.00,0.0141
3681.00,0.0141
3680.00,0.0141
3679.00,0.0143
3678.00,0.0147
3677.00,0.0151
3676.00,0.0152
3675.00,0.0152
3674.00,0.0154
3673.00,0.0158
3672.00,0.0159
3671.00,0.0156
3670.00,0.0153
3669.00,0.0153
3668.00,0.0155
3667.00,0.0155
3666.00,0.0153
3665.00,0.0151
3664.00,0.0149
3663.00,0.0148
3662.00,0.0148
3661.00,0.0149
3660.00,0.0150
3659.00,0.0151
3658.00,0.0153
3657.00,0.0154
3656.00,0.0155
3655.00,0.0158
3654.00,0.0162
3653.00,0.0166
3652.00,0.0167
3651.00,0.0165
3650.00,0.0167
3649.00,0.0175
3648.00,0.0181
3647.00,0.0181
3646.00,0.0179
3645.00,0.0175
3644.00,0.0173
3643.00,0.0170
3642.00,0.0168
3641.00,0.0167
3640.00,0.0167
3639.00,0.0168
3638.00,0.0168
3637.00,0.0169
3636.00,0.0171
3635.00,0.0171
3634.00,0.0170
3633.00,0.0171
3632.00,0.0174
3631.00,0.0178
3630.00,0.0180
3629.00,0.0182
3628.00,0.0184
3627.00,0.0186
3626.00,0.0186
3625.00,0.0183
3624.00,0.0181
3623.00,0.0180
3622.00,0.0182
3621.00,0.0184
3620.00,0.0187
3619.00,0.0189
3618.00,0.0192
3617.00,0.0194
3616.00,0.0194
3615.00,0.0193
3614.00,0.0191
3613.00,0.0189
3612.00,0.0190
3611.00,0.0192
3610.00,0.0193
3609.00,0.0192
3608.00,0.0192
3607.00,0.0192
3606.00,0.0192
3605.00,0.0191
3604.00,0.0190
3603.00,0.0189
3602.00,0.0189
3601.00,0.0190
3600.00,0.0191
3599.00,0.0192
3598.00,0.0193
3597.00,0.0194
3596.00,0.0195
3595.00,0.0196
3594.00,0.0196
3593.00,0.0196
3592.00,0.0196
3591.00,0.0197
3590.00,0.0199
3589.00,0.0201
3588.00,0.0203
3587.00,0.0205
3586.00,0.0206
3585.00,0.0205
3584.00,0.0204
3583.00,0.0201
3582.00,0.0200
3581.00,0.0199
3580.00,0.0199
3579.00,0.0199
3578.00,0.0199
3577.00,0.0199
3576.00,0.0199
3575.00,0.0198
3574.00,0.0198
3573.00,0.0198
3572.00,0.0199
3571.00,0.0200
3570.00,0.0203
3569.00,0.0206
3568.00,0.0210
3567.00,0.0214
3566.00,0.0217
3565.00,0.0217
3564.00,0.0216
3563.00,0.0213
3562.00,0.0210
3561.00,0.0209
3560.00,0.0208
3559.00,0.0207
3558.00,0.0207
3557.00,0.0206
3556.00,0.0206
3555.00,0.0206
3554.00,0.0207
3553.00,0.0208
3552.00,0.0209
3551.00,0.0210
3550.00,0.0211
3549.00,0.0211
3548.00,0.0212
3547.00,0.0214
3546.00,0.0216
3545.00,0.0217
3544.00,0.0217
3543.00,0.0216
3542.00,0.0214
3541.00,0.0213
3540.00,0.0212
3539.00,0.0213
3538.00,0.0213
3537.00,0.0214
3536.00,0.0214
3535.00,0.0214
3534.00,0.0213
3533.00,0.0213
3532.00,0.0213
3531.00,0.0213
3530.00,0.0214
3529.00,0.0216
3528.00,0.0217
3527.00,0.0218
3526.00,0.0220
3525.00,0.0221
3524.00,0.0221
3523.00,0.0221
3522.00,0.0220
3521.00,0.0220
3520.00,0.0219
3519.00,0.0218
3518.00,0.0218
3517.00,0.0218
3516.00,0.0219
3515.00,0.0219
3514.00,0.0219
3513.00,0.0220
3512.00,0.0220
3511.00,0.0221
3510.00,0.0222
3509.00,0.0223
3508.00,0.0223
3507.00,0.0223
3506.00,0.0224
3505.00,0.0224
3504.00,0.0224
3503.00,0.0225
3502.00,0.0226
3501.00,0.0227
3500.00,0.0227
3499.00,0.0226
3498.00,0.0226
3497.00,0.0225
3496.00,0.0225
3495.00,0.0225
3494.00,0.0225
3493.00,0.0225
3492.00,0.0225
3491.00,0.0224
3490.00,0.0224
3489.00,0.0224
3488.00,0.0225
3487.00,0.0227
3486.00,0.0228
3485.00,0.0229
3484.00,0.0230
3483.00,0.0230
3482.00,0.0230
3481.00,0.0231
3480.00,0.0231
3479.00,0.0231
3478.00,0.0231
3477.00,0.0231
3476.00,0.0231
3475.00,0.0231
3474.00,0.0231
3473.00,0.0231
3472.00,0.0232
3471.00,0.0233
3470.00,0.0233
3469.00,0.0233
3468.00,0.0233
3467.00,0.0233
3466.00,0.0233
3465.00,0.0234
3464.00,0.0234
3463.00,0.0235
3462.00,0.0235
3461.00,0.0235
3460.00,0.0234
3459.00,0.0234
3458.00,0.0234
3457.00,0.0234
3456.00,0.0235
3455.00,0.0236
3454.00,0.0236
3453.00,0.0237
3452.00,0.0237
3451.00,0.0237
3450.00,0.0237
3449.00,0.0238
3448.00,0.0238
3447.00,0.0239
3446.00,0.0240
3445.00,0.0240
3444.00,0.0240
3443.00,0.0239
3442.00,0.0239
3441.00,0.0239
3440.00,0.0239
3439.00,0.0238
3438.00,0.0238
3437.00,0.0238
3436.00,0.0238
3435.00,0.0239
3434.00,0.0240
3433.00,0.0240
3432.00,0.0240
3431.00,0.0240
3430.00,0.0240
3429.00,0.0241
3428.00,0.0241
3427.00,0.0241
3426.00,0.0241
3425.00,0.0242
3424.00,0.0242
3423.00,0.0243
3422.00,0.0243
3421.00,0.0244
3420.00,0.0244
3419.00,0.0244
3418.00,0.0244
3417.00,0.0244
3416.00,0.0244
3415.00,0.0244
3414.00,0.0244
3413.00,0.0245
3412.00,0.0245
3411.00,0.0245
3410.00,0.0244
3409.00,0.0244
3408.00,0.0244
3407.00,0.0245
3406.00,0.0246
3405.00,0.0246
3404.00,0.0246
3403.00,0.0246
3402.00,0.0246
3401.00,0.0245
3400.00,0.0245
3399.00,0.0245
3398.00,0.0245
3397.00,0.0246
3396.00,0.0246
3395.00,0.0247
3394.00,0.0247
3393.00,0.0247
3392.00,0.0248
3391.00,0.0248
3390.00,0.0248
3389.00,0.0247
3388.00,0.0247
3387.00,0.0248
3386.00,0.0248
3385.00,0.0249
3384.00,0.0249
3383.00,0.0249
3382.00,0.0248
3381.00,0.0248
3380.00,0.0247
3379.00,0.0248
3378.00,0.0248
3377.00,0.0248
3376.00,0.0248
3375.00,0.0249
3374.00,0.0249
3373.00,0.0249
3372.00,0.0250
3371.00,0.0250
3370.00,0.0250
3369.00,0.0250
3368.00,0.0250
3367.00,0.0251
3366.00,0.0251
3365.00,0.0252
3364.00,0.0252
3363.00,0.0252
3362.00,0.0252
3361.00,0.0251
3360.00,0.0250
3359.00,0.0250
3358.00,0.0251
3357.00,0.0252
3356.00,0.0252
3355.00,0.0252
3354.00,0.0252
3353.00,0.0251
3352.00,0.0251
3351.00,0.0251
3350.00,0.0251
3349.00,0.0250
3348.00,0.0250
3347.00,0.0250
3346.00,0.0250
3345.00,0.0251
3344.00,0.0251
3343.00,0.0251
3342.00,0.0251
3341.00,0.0251
3340.00,0.0251
3339.00,0.0251
3338.00,0.0251
3337.00,0.0252
3336.00,0.0252
3335.00,0.0253
3334.00,0.0253
3333.00,0.0253
3332.00,0.0253
3331.00,0.0253
3330.00,0.0253
3329.00,0.0253
3328.00,0.0253
3327.00,0.0253
3326.00,0.0253
3325.00,0.0254
3324.00,0.0254
3323.00,0.0254
3322.00,0.0254
3321.00,0.0253
3320.00,0.0253
3319.00,0.0252
3318.00,0.0252
3317.00,0.0253
3316.00,0.0253
3315.00,0.0253
3314.00,0.0253
3313.00,0.0253
3312.00,0.0253
3311.00,0.0253
3310.00,0.0254
3309.00,0.0254
3308.00,0.0254
3307.00,0.0255
3306.00,0.0255
3305.00,0.0255
3304.00,0.0255
3303.00,0.0255
3302.00,0.0255
3301.00,0.0254
3300.00,0.0254
3299.00,0.0253
3298.00,0.0253
3297.00,0.0253
3296.00,0.0254
3295.00,0.0254
3294.00,0.0254
3293.00,0.0254
3292.00,0.0254
3291.00,0.0254
3290.00,0.0255
3289.00,0.0255
3288.00,0.0256
3287.00,0.0256
3286.00,0.0256
3285.00,0.0256
3284.00,0.0255
3283.00,0.0255
3282.00,0.0256
3281.00,0.0256
3280.00,0.0256
3279.00,0.0256
3278.00,0.0256
3277.00,0.0256
3276.00,0.0256
3275.00,0.0256
3274.00,0.0256
3273.00,0.0256
3272.00,0.0256
3271.00,0.0256
3270.00,0.0256
3269.00,0.0256
3268.00,0.0257
3267.00,0.0257
3266.00,0.0256
3265.00,0.0256
3264.00,0.0256
3263.00,0.0256
3262.00,0.0256
3261.00,0.0256
3260.00,0.0256
3259.00,0.0257
3258.00,0.0257
3257.00,0.0257
3256.00,0.0258
3255.00,0.0258
3254.00,0.0258
3253.00,0.0257
3252.00,0.0257
3251.00,0.0256
3250.00,0.0256
3249.00,0.0256
3248.00,0.0257
3247.00,0.0258
3246.00,0.0259
3245.00,0.0259
3244.00,0.0260
3243.00,0.0260
3242.00,0.0259
3241.00,0.0259
3240.00,0.0259
3239.00,0.0259
3238.00,0.0259
3237.00,0.0259
3236.00,0.0259
3235.00,0.0259
3234.00,0.0259
3233.00,0.0260
3232.00,0.0260
3231.00,0.0261
3230.00,0.0261
3229.00,0.0260
3228.00,0.0260
3227.00,0.0260
3226.00,0.0260
3225.00,0.0260
3224.00,0.0260
3223.00,0.0260
3222.00,0.0260
3221.00,0.0260
3220.00,0.0260
3219.00,0.0260
3218.00,0.0260
3217.00,0.0260
3216.00,0.0259
3215.00,0.0259
3214.00,0.0259
3213.00,0.0260
3212.00,0.0260
3211.00,0.0260
3210.00,0.0260
3209.00,0.0260
3208.00,0.0260
3207.00,0.0260
3206.00,0.0260
3205.00,0.0261
3204.00,0.0261
3203.00,0.0261
3202.00,0.0261
3201.00,0.0261
3200.00,0.0261
3199.00,0.0261
3198.00,0.0260
3197.00,0.0260
3196.00,0.0260
3195.00,0.0259
3194.00,0.0259
3193.00,0.0259
3192.00,0.0259
3191.00,0.0259
3190.00,0.0259
3189.00,0.0259
3188.00,0.0260
3187.00,0.0260
3186.00,0.0260
3185.00,0.0260
3184.00,0.0260
3183.00,0.0260
3182.00,0.0260
3181.00,0.0260
3180.00,0.0259
3179.00,0.0259
3178.00,0.0259
3177.00,0.0260
3176.00,0.0260
3175.00,0.0260
3174.00,0.0259
3173.00,0.0259
3172.00,0.0259
3171.00,0.0258
3170.00,0.0258
3169.00,0.0258
3168.00,0.0258
3167.00,0.0258
3166.00,0.0258
3165.00,0.0258
3164.00,0.0258
3163.00,0.0258
3162.00,0.0257
3161.00,0.0257
3160.00,0.0257
3159.00,0.0257
3158.00,0.0257
3157.00,0.0258
3156.00,0.0257
3155.00,0.0257
3154.00,0.0257
3153.00,0.0257
3152.00,0.0257
3151.00,0.0257
3150.00,0.0257
3149.00,0.0256
3148.00,0.0256
3147.00,0.0256
3146.00,0.0256
3145.00,0.0256
3144.00,0.0256
3143.00,0.0257
3142.00,0.0257
3141.00,0.0257
3140.00,0.0256
3139.00,0.0256
3138.00,0.0256
3137.00,0.0256
3136.00,0.0256
3135.00,0.0256
3134.00,0.0255
3133.00,0.0255
3132.00,0.0255
3131.00,0.0255
3130.00,0.0255
3129.00,0.0255
3128.00,0.0255
3127.00,0.0255
3126.00,0.0256
3125.00,0.0256
3124.00,0.0256
3123.00,0.0256
3122.00,0.0256
3121.00,0.0256
3120.00,0.0255
3119.00,0.0255
3118.00,0.0255
3117.00,0.0254
3116.00,0.0255
3115.00,0.0255
3114.00,0.0255
3113.00,0.0255
3112.00,0.0255
3111.00,0.0254
3110.00,0.0254
3109.00,0.0253
3108.00,0.0253
3107.00,0.0253
3106.00,0.0254
3105.00,0.0254
3104.00,0.0254
3103.00,0.0254
3102.00,0.0254
3101.00,0.0254
3100.00,0.0254
3099.00,0.0254
3098.00,0.0254
3097.00,0.0254
3096.00,0.0254
3095.00,0.0254
3094.00,0.0254
3093.00,0.0253
3092.00,0.0253
3091.00,0.0253
3090.00,0.0253
3089.00,0.0253
3088.00,0.0253
3087.00,0.0254
3086.00,0.0253
3085.00,0.0253
3084.00,0.0253
3083.00,0.0253
3082.00,0.0253
3081.00,0.0253
3080.00,0.0253
3079.00,0.0253
3078.00,0.0252
3077.00,0.0252
3076.00,0.0252
3075.00,0.0252
3074.00,0.0252
3073.00,0.0252
3072.00,0.0252
3071.00,0.0252
3070.00,0.0252
3069.00,0.0251
3068.00,0.0251
3067.00,0.0251
3066.00,0.0251
3065.00,0.0252
3064.00,0.0252
3063.00,0.0252
3062.00,0.0251
3061.00,0.0251
3060.00,0.0251
3059.00,0.0251
3058.00,0.0251
3057.00,0.0251
3056.00,0.0251
3055.00,0.0251
3054.00,0.0251
3053.00,0.0251
3052.00,0.0251
3051.00,0.0250
3050.00,0.0250
3049.00,0.0249
3048.00,0.0249
3047.00,0.0248
3046.00,0.0248
3045.00,0.0248
3044.00,0.0249
3043.00,0.0249
3042.00,0.0249
3041.00,0.0248
3040.00,0.0248
3039.00,0.0248
3038.00,0.0247
3037.00,0.0247
3036.00,0.0247
3035.00,0.0247
3034.00,0.0248
3033.00,0.0248
3032.00,0.0248
3031.00,0.0248
3030.00,0.0247
3029.00,0.0247
3028.00,0.0246
3027.00,0.0246
3026.00,0.0245
3025.00,0.0245
3024.00,0.0245
3023.00,0.0245
3022.00,0.0245
3021.00,0.0245
3020.00,0.0245
3019.00,0.0244
3018.00,0.0244
3017.00,0.0244
3016.00,0.0244
3015.00,0.0244
3014.00,0.0244
3013.00,0.0244
3012.00,0.0244
3011.00,0.0244
3010.00,0.0244
3009.00,0.0243
3008.00,0.0243
3007.00,0.0242
3006.00,0.0241
3005.00,0.0241
3004.00,0.0241
3003.00,0.0241
3002.00,0.0241
3001.00,0.0240
3000.00,0.0240
2999.00,0.0239
2998.00,0.0239
2997.00,0.0239
2996.00,0.0238
2995.00,0.0238
2994.00,0.0238
2993.00,0.0238
2992.00,0.0238
2991.00,0.0237
2990.00,0.0237
2989.00,0.0236
2988.00,0.0236
2987.00,0.0236
2986.00,0.0236
2985.00,0.0236
2984.00,0.0236
2983.00,0.0235
2982.00,0.0234
2981.00,0.0234
2980.00,0.0234
2979.00,0.0233
2978.00,0.0233
2977.00,0.0233
2976.00,0.0233
2975.00,0.0233
2974.00,0.0232
2973.00,0.0232
2972.00,0.0231
2971.00,0.0230
2970.00,0.0229
2969.00,0.0229
2968.00,0.0229
2967.00,0.0229
2966.00,0.0228
2965.00,0.0228
2964.00,0.0227
2963.00,0.0227
2962.00,0.0226
2961.00,0.0226
2960.00,0.0226
2959.00,0.0226
2958.00,0.0226
2957.00,0.0226
2956.00,0.0225
2955.00,0.0225
2954.00,0.0225
2953.00,0.0226
2952.00,0.0226
2951.00,0.0226
2950.00,0.0226
2949.00,0.0225
2948.00,0.0225
2947.00,0.0225
2946.00,0.0226
2945.00,0.0226
2944.00,0.0226
2943.00,0.0225
2942.00,0.0224
2941.00,0.0223
2940.00,0.0222
2939.00,0.0221
2938.00,0.0220
2937.00,0.0220
2936.00,0.0219
2935.00,0.0218
2934.00,0.0217
2933.00,0.0216
2932.00,0.0216
2931.00,0.0215
2930.00,0.0213
2929.00,0.0212
2928.00,0.0211
2927.00,0.0210
2926.00,0.0209
2925.00,0.0208
2924.00,0.0208
2923.00,0.0208
2922.00,0.0208
2921.00,0.0208
2920.00,0.0208
2919.00,0.0208
2918.00,0.0207
2917.00,0.0207
2916.00,0.0208
2915.00,0.0210
2914.00,0.0212
2913.00,0.0214
2912.00,0.0215
2911.00,0.0216
2910.00,0.0217
2909.00,0.0218
2908.00,0.0218
2907.00,0.0219
2906.00,0.0219
2905.00,0.0219
2904.00,0.0220
2903.00,0.0220
2902.00,0.0220
2901.00,0.0220
2900.00,0.0221
2899.00,0.0221
2898.00,0.0221
2897.00,0.0221
2896.00,0.0220
2895.00,0.0221
2894.00,0.0221
2893.00,0.0221
2892.00,0.0221
2891.00,0.0221
2890.00,0.0222
2889.00,0.0222
2888.00,0.0222
2887.00,0.0222
2886.00,0.0222
2885.00,0.0222
2884.00,0.0222
2883.00,0.0223
2882.00,0.0223
2881.00,0.0223
2880.00,0.0223
2879.00,0.0222
2878.00,0.0222
2877.00,0.0222
2876.00,0.0221
2875.00,0.0221
2874.00,0.0220
2873.00,0.0219
2872.00,0.0219
2871.00,0.0219
2870.00,0.0218
2869.00,0.0218
2868.00,0.0218
2867.00,0.0217
2866.00,0.0217
2865.00,0.0216
2864.00,0.0216
2863.00,0.0216
2862.00,0.0216
2861.00,0.0215
2860.00,0.0215
2859.00,0.0215
2858.00,0.0214
2857.00,0.0213
2856.00,0.0213
2855.00,0.0212
2854.00,0.0212
2853.00,0.0212
2852.00,0.0211
2851.00,0.0211
2850.00,0.0211
2849.00,0.0211
2848.00,0.0212
2847.00,0.0213
2846.00,0.0214
2845.00,0.0215
2844.00,0.0216
2843.00,0.0217
2842.00,0.0218
2841.00,0.0218
2840.00,0.0219
2839.00,0.0219
2838.00,0.0220
2837.00,0.0220
2836.00,0.0220
2835.00,0.0220
2834.00,0.0219
2833.00,0.0220
2832.00,0.0220
2831.00,0.0220
2830.00,0.0220
2829.00,0.0220
2828.00,0.0220
2827.00,0.0220
2826.00,0.0220
2825.00,0.0220
2824.00,0.0219
2823.00,0.0219
2822.00,0.0219
2821.00,0.0219
2820.00,0.0219
2819.00,0.0219
2818.00,0.0219
2817.00,0.0219
2816.00,0.0219
2815.00,0.0219
2814.00,0.0219
2813.00,0.0218
2812.00,0.0218
2811.00,0.0218
2810.00,0.0217
2809.00,0.0218
2808.00,0.0218
2807.00,0.0217
2806.00,0.0217
2805.00,0.0217
2804.00,0.0217
2803.00,0.0217
2802.00,0.0217
2801.00,0.0217
2800.00,0.0217
2799.00,0.0217
2798.00,0.0217
2797.00,0.0217
2796.00,0.0216
2795.00,0.0216
2794.00,0.0216
2793.00,0.0216
2792.00,0.0216
2791.00,0.0216
2790.00,0.0216
2789.00,0.0217
2788.00,0.0217
2787.00,0.0217
2786.00,0.0216
2785.00,0.0216
2784.00,0.0216
2783.00,0.0216
2782.00,0.0216
2781.00,0.0216
2780.00,0.0215
2779.00,0.0214
2778.00,0.0214
2777.00,0.0214
2776.00,0.0215
2775.00,0.0215
2774.00,0.0215
2773.00,0.0215
2772.00,0.0214
2771.00,0.0214
2770.00,0.0214
2769.00,0.0214
2768.00,0.0213
2767.00,0.0213
2766.00,0.0213
2765.00,0.0213
2764.00,0.0214
2763.00,0.0214
2762.00,0.0213
2761.00,0.0213
2760.00,0.0213
2759.00,0.0212
2758.00,0.0212
2757.00,0.0213
2756.00,0.0213
2755.00,0.0213
2754.00,0.0213
2753.00,0.0212
2752.00,0.0212
2751.00,0.0212
2750.00,0.0212
2749.00,0.0212
2748.00,0.0213
2747.00,0.0213
2746.00,0.0213
2745.00,0.0212
2744.00,0.0211
2743.00,0.0211
2742.00,0.0211
2741.00,0.0211
2740.00,0.0211
2739.00,0.0211
2738.00,0.0211
2737.00,0.0211
2736.00,0.0210
2735.00,0.0210
2734.00,0.0210
2733.00,0.0210
2732.00,0.0210
2731.00,0.0210
2730.00,0.0210
2729.00,0.0210
2728.00,0.0210
2727.00,0.0210
2726.00,0.0210
2725.00,0.0210
2724.00,0.0210
2723.00,0.0210
2722.00,0.0210
2721.00,0.0210
2720.00,0.0210
2719.00,0.0209
2718.00,0.0209
2717.00,0.0209
2716.00,0.0209
2715.00,0.0209
2714.00,0.0209
2713.00,0.0209
2712.00,0.0209
2711.00,0.0209
2710.00,0.0209
2709.00,0.0209
2708.00,0.0209
2707.00,0.0209
2706.00,0.0208
2705.00,0.0208
2704.00,0.0208
2703.00,0.0208
2702.00,0.0208
2701.00,0.0208
2700.00,0.0207
2699.00,0.0207
2698.00,0.0207
2697.00,0.0207
2696.00,0.0207
2695.00,0.0207
2694.00,0.0207
2693.00,0.0207
2692.00,0.0207
2691.00,0.0207
2690.00,0.0207
2689.00,0.0207
2688.00,0.0207
2687.00,0.0207
2686.00,0.0207
2685.00,0.0207
2684.00,0.0207
2683.00,0.0207
2682.00,0.0207
2681.00,0.0207
2680.00,0.0207
2679.00,0.0207
2678.00,0.0207
2677.00,0.0207
2676.00,0.0206
2675.00,0.0206
2674.00,0.0206
2673.00,0.0206
2672.00,0.0206
2671.00,0.0206
2670.00,0.0205
2669.00,0.0205
2668.00,0.0205
2667.00,0.0205
2666.00,0.0205
2665.00,0.0206
2664.00,0.0206
2663.00,0.0206
2662.00,0.0206
2661.00,0.0206
2660.00,0.0206
2659.00,0.0206
2658.00,0.0207
2657.00,0.0207
2656.00,0.0207
2655.00,0.0207
2654.00,0.0207
2653.00,0.0207
2652.00,0.0207
2651.00,0.0208
2650.00,0.0208
2649.00,0.0208
2648.00,0.0208
2647.00,0.0208
2646.00,0.0208
2645.00,0.0208
2644.00,0.0208
2643.00,0.0209
2642.00,0.0209
2641.00,0.0210
2640.00,0.0209
2639.00,0.0209
2638.00,0.0209
2637.00,0.0209
2636.00,0.0208
2635.00,0.0208
2634.00,0.0208
2633.00,0.0208
2632.00,0.0208
2631.00,0.0208
2630.00,0.0208
2629.00,0.0208
2628.00,0.0208
2627.00,0.0208
2626.00,0.0209
2625.00,0.0209
2624.00,0.0209
2623.00,0.0209
2622.00,0.0208
2621.00,0.0208
2620.00,0.0208
2619.00,0.0208
2618.00,0.0209
2617.00,0.0210
2616.00,0.0210
2615.00,0.0210
2614.00,0.0210
2613.00,0.0210
2612.00,0.0209
2611.00,0.0209
2610.00,0.0209
2609.00,0.0209
2608.00,0.0209
2607.00,0.0209
2606.00,0.0209
2605.00,0.0209
2604.00,0.0209
2603.00,0.0209
2602.00,0.0209
2601.00,0.0209
2600.00,0.0209
2599.00,0.0209
2598.00,0.0209
2597.00,0.0209
2596.00,0.0208
2595.00,0.0208
2594.00,0.0208
2593.00,0.0209
2592.00,0.0209
2591.00,0.0209
2590.00,0.0210
2589.00,0.0210
2588.00,0.0209
2587.00,0.0209
2586.00,0.0209
2585.00,0.0208
2584.00,0.0209
2583.00,0.0209
2582.00,0.0209
2581.00,0.0209
2580.00,0.0209
2579.00,0.0210
2578.00,0.0210
2577.00,0.0210
2576.00,0.0210
2575.00,0.0210
2574.00,0.0210
2573.00,0.0209
2572.00,0.0209
2571.00,0.0209
2570.00,0.0208
2569.00,0.0208
2568.00,0.0208
2567.00,0.0209
2566.00,0.0209
2565.00,0.0209
2564.00,0.0209
2563.00,0.0209
2562.00,0.0209
2561.00,0.0209
2560.00,0.0209
2559.00,0.0209
2558.00,0.0209
2557.00,0.0209
2556.00,0.0209
2555.00,0.0210
2554.00,0.0210
2553.00,0.0210
2552.00,0.0210
2551.00,0.0210
2550.00,0.0210
2549.00,0.0209
2548.00,0.0209
2547.00,0.0208
2546.00,0.0208
2545.00,0.0207
2544.00,0.0208
2543.00,0.0209
2542.00,0.0210
2541.00,0.0211
2540.00,0.0211
2539.00,0.0211
2538.00,0.0210
2537.00,0.0210
2536.00,0.0210
2535.00,0.0210
2534.00,0.0209
2533.00,0.0209
2532.00,0.0208
2531.00,0.0207
2530.00,0.0207
2529.00,0.0208
2528.00,0.0208
2527.00,0.0209
2526.00,0.0209
2525.00,0.0209
2524.00,0.0209
2523.00,0.0209
2522.00,0.0209
2521.00,0.0209
2520.00,0.0208
2519.00,0.0208
2518.00,0.0208
2517.00,0.0207
2516.00,0.0207
2515.00,0.0207
2514.00,0.0207
2513.00,0.0208
2512.00,0.0208
2511.00,0.0208
2510.00,0.0208
2509.00,0.0207
2508.00,0.0206
2507.00,0.0206
2506.00,0.0206
2505.00,0.0206
2504.00,0.0206
2503.00,0.0207
2502.00,0.0208
2501.00,0.0208
2500.00,0.0207
2499.00,0.0207
2498.00,0.0206
2497.00,0.0206
2496.00,0.0206
2495.00,0.0206
2494.00,0.0206
2493.00,0.0206
2492.00,0.0206
2491.00,0.0206
2490.00,0.0205
2489.00,0.0205
2488.00,0.0206
2487.00,0.0206
2486.00,0.0206
2485.00,0.0206
2484.00,0.0206
2483.00,0.0206
2482.00,0.0206
2481.00,0.0206
2480.00,0.0207
2479.00,0.0207
2478.00,0.0207
2477.00,0.0206
2476.00,0.0206
2475.00,0.0205
2474.00,0.0205
2473.00,0.0205
2472.00,0.0205
2471.00,0.0205
2470.00,0.0205
2469.00,0.0205
2468.00,0.0204
2467.00,0.0204
2466.00,0.0205
2465.00,0.0204
2464.00,0.0204
2463.00,0.0204
2462.00,0.0204
2461.00,0.0204
2460.00,0.0204
2459.00,0.0205
2458.00,0.0205
2457.00,0.0205
2456.00,0.0204
2455.00,0.0203
2454.00,0.0203
2453.00,0.0203
2452.00,0.0204
2451.00,0.0204
2450.00,0.0204
2449.00,0.0204
2448.00,0.0204
2447.00,0.0203
2446.00,0.0203
2445.00,0.0202
2444.00,0.0202
2443.00,0.0202
2442.00,0.0202
2441.00,0.0202
2440.00,0.0202
2439.00,0.0202
2438.00,0.0202
2437.00,0.0202
2436.00,0.0202
2435.00,0.0201
2434.00,0.0201
2433.00,0.0200
2432.00,0.0200
2431.00,0.0200
2430.00,0.0200
2429.00,0.0200
2428.00,0.0201
2427.00,0.0201
2426.00,0.0201
2425.00,0.0201
2424.00,0.0201
2423.00,0.0200
2422.00,0.0200
2421.00,0.0199
2420.00,0.0199
2419.00,0.0199
2418.00,0.0200
2417.00,0.0200
2416.00,0.0200
2415.00,0.0200
2414.00,0.0200
2413.00,0.0200
2412.00,0.0200
2411.00,0.0199
2410.00,0.0199
2409.00,0.0198
2408.00,0.0198
2407.00,0.0199
2406.00,0.0199
2405.00,0.0199
2404.00,0.0199
2403.00,0.0198
2402.00,0.0198
2401.00,0.0198
2400.00,0.0197
2399.00,0.0196
2398.00,0.0196
2397.00,0.0196
2396.00,0.0196
2395.00,0.0196
2394.00,0.0196
2393.00,0.0196
2392.00,0.0196
2391.00,0.0195
2390.00,0.0194
2389.00,0.0193
2388.00,0.0192
2387.00,0.0191
2386.00,0.0190
2385.00,0.0189
2384.00,0.0187
2383.00,0.0186
2382.00,0.0185
2381.00,0.0184
2380.00,0.0184
2379.00,0.0184
2378.00,0.0185
2377.00,0.0186
2376.00,0.0187
2375.00,0.0189
2374.00,0.0190
2373.00,0.0191
2372.00,0.0191
2371.00,0.0190
2370.00,0.0189
2369.00,0.0188
2368.00,0.0188
2367.00,0.0189
2366.00,0.0189
2365.00,0.0189
2364.00,0.0188
2363.00,0.0189
2362.00,0.0192
2361.00,0.0195
2360.00,0.0198
2359.00,0.0199
2358.00,0.0200
2357.00,0.0200
2356.00,0.0200
2355.00,0.0198
2354.00,0.0194
2353.00,0.0191
2352.00,0.0189
2351.00,0.0189
2350.00,0.0189
2349.00,0.0187
2348.00,0.0183
2347.00,0.0179
2346.00,0.0179
2345.00,0.0182
2344.00,0.0186
2343.00,0.0189
2342.00,0.0191
2341.00,0.0192
2340.00,0.0193
2339.00,0.0193
2338.00,0.0193
2337.00,0.0193
2336.00,0.0193
2335.00,0.0193
2334.00,0.0192
2333.00,0.0193
2332.00,0.0193
2331.00,0.0194
2330.00,0.0196
2329.00,0.0198
2328.00,0.0200
2327.00,0.0201
2326.00,0.0201
2325.00,0.0200
2324.00,0.0199
2323.00,0.0199
2322.00,0.0199
2321.00,0.0199
2320.00,0.0198
2319.00,0.0197
2318.00,0.0197
2317.00,0.0196
2316.00,0.0196
2315.00,0.0194
2314.00,0.0193
2313.00,0.0193
2312.00,0.0194
2311.00,0.0194
2310.00,0.0194
2309.00,0.0193
2308.00,0.0193
2307.00,0.0192
2306.00,0.0193
2305.00,0.0193
2304.00,0.0193
2303.00,0.0193
2302.00,0.0192
2301.00,0.0192
2300.00,0.0191
2299.00,0.0191
2298.00,0.0191
2297.00,0.0191
2296.00,0.0191
2295.00,0.0190
2294.00,0.0190
2293.00,0.0191
2292.00,0.0191
2291.00,0.0192
2290.00,0.0192
2289.00,0.0193
2288.00,0.0192
2287.00,0.0192
2286.00,0.0191
2285.00,0.0191
2284.00,0.0191
2283.00,0.0191
2282.00,0.0191
2281.00,0.0191
2280.00,0.0192
2279.00,0.0192
2278.00,0.0192
2277.00,0.0191
2276.00,0.0191
2275.00,0.0191
2274.00,0.0192
2273.00,0.0192
2272.00,0.0192
2271.00,0.0191
2270.00,0.0190
2269.00,0.0190
2268.00,0.0191
2267.00,0.0192
2266.00,0.0192
2265.00,0.0193
2264.00,0.0192
2263.00,0.0191
2262.00,0.0191
2261.00,0.0190
2260.00,0.0190
2259.00,0.0191
2258.00,0.0192
2257.00,0.0192
2256.00,0.0192
2255.00,0.0191
2254.00,0.0191
2253.00,0.0190
2252.00,0.0190
2251.00,0.0189
2250.00,0.0189
2249.00,0.0189
2248.00,0.0189
2247.00,0.0189
2246.00,0.0188
2245.00,0.0188
2244.00,0.0188
2243.00,0.0188
2242.00,0.0189
2241.00,0.0190
2240.00,0.0191
2239.00,0.0191
2238.00,0.0191
2237.00,0.0191
2236.00,0.0191
2235.00,0.0190
2234.00,0.0190
2233.00,0.0190
2232.00,0.0190
2231.00,0.0190
2230.00,0.0191
2229.00,0.0192
2228.00,0.0192
2227.00,0.0191
2226.00,0.0190
2225.00,0.0190
2224.00,0.0189
2223.00,0.0189
2222.00,0.0189
2221.00,0.0189
2220.00,0.0189
2219.00,0.0189
2218.00,0.0191
2217.00,0.0193
2216.00,0.0194
2215.00,0.0195
2214.00,0.0195
2213.00,0.0194
2212.00,0.0193
2211.00,0.0191
2210.00,0.0189
2209.00,0.0188
2208.00,0.0188
2207.00,0.0189
2206.00,0.0190
2205.00,0.0192
2204.00,0.0193
2203.00,0.0193
2202.00,0.0192
2201.00,0.0192
2200.00,0.0193
2199.00,0.0193
2198.00,0.0193
2197.00,0.0192
2196.00,0.0191
2195.00,0.0191
2194.00,0.0190
2193.00,0.0189
2192.00,0.0188
2191.00,0.0188
2190.00,0.0189
2189.00,0.0189
2188.00,0.0189
2187.00,0.0189
2186.00,0.0189
2185.00,0.0190
2184.00,0.0191
2183.00,0.0192
2182.00,0.0192
2181.00,0.0192
2180.00,0.0192
2179.00,0.0192
2178.00,0.0192
2177.00,0.0190
2176.00,0.0189
2175.00,0.0189
2174.00,0.0190
2173.00,0.0191
2172.00,0.0192
2171.00,0.0193
2170.00,0.0191
2169.00,0.0190
2168.00,0.0188
2167.00,0.0188
2166.00,0.0189
2165.00,0.0191
2164.00,0.0194
2163.00,0.0196
2162.00,0.0195
2161.00,0.0192
2160.00,0.0188
2159.00,0.0184
2158.00,0.0183
2157.00,0.0183
2156.00,0.0184
2155.00,0.0185
2154.00,0.0185
2153.00,0.0185
2152.00,0.0184
2151.00,0.0183
2150.00,0.0182
2149.00,0.0181
2148.00,0.0181
2147.00,0.0179
2146.00,0.0179
2145.00,0.0179
2144.00,0.0180
2143.00,0.0182
2142.00,0.0182
2141.00,0.0181
2140.00,0.0180
2139.00,0.0178
2138.00,0.0177
2137.00,0.0176
2136.00,0.0175
2135.00,0.0174
2134.00,0.0174
2133.00,0.0174
2132.00,0.0175
2131.00,0.0175
2130.00,0.0175
2129.00,0.0175
2128.00,0.0174
2127.00,0.0174
2126.00,0.0174
2125.00,0.0174
2124.00,0.0175
2123.00,0.0175
2122.00,0.0176
2121.00,0.0176
2120.00,0.0177
2119.00,0.0178
2118.00,0.0178
2117.00,0.0179
2116.00,0.0179
2115.00,0.0178
2114.00,0.0177
2113.00,0.0176
2112.00,0.0175
2111.00,0.0174
2110.00,0.0174
2109.00,0.0175
2108.00,0.0176
2107.00,0.0176
2106.00,0.0177
2105.00,0.0176
2104.00,0.0176
2103.00,0.0175
2102.00,0.0174
2101.00,0.0173
2100.00,0.0174
2099.00,0.0175
2098.00,0.0176
2097.00,0.0176
2096.00,0.0175
2095.00,0.0174
2094.00,0.0173
2093.00,0.0173
2092.00,0.0174
2091.00,0.0175
2090.00,0.0175
2089.00,0.0175
2088.00,0.0175
2087.00,0.0175
2086.00,0.0175
2085.00,0.0175
2084.00,0.0174
2083.00,0.0174
2082.00,0.0173
2081.00,0.0173
2080.00,0.0173
2079.00,0.0173
2078.00,0.0174
2077.00,0.0175
2076.00,0.0175
2075.00,0.0174
2074.00,0.0173
2073.00,0.0172
2072.00,0.0172
2071.00,0.0173
2070.00,0.0174
2069.00,0.0174
2068.00,0.0174
2067.00,0.0174
2066.00,0.0175
2065.00,0.0175
2064.00,0.0175
2063.00,0.0175
2062.00,0.0175
2061.00,0.0175
2060.00,0.0175
2059.00,0.0174
2058.00,0.0174
2057.00,0.0174
2056.00,0.0175
2055.00,0.0175
2054.00,0.0175
2053.00,0.0175
2052.00,0.0175
2051.00,0.0175
2050.00,0.0175
2049.00,0.0176
2048.00,0.0177
2047.00,0.0177
2046.00,0.0178
2045.00,0.0177
2044.00,0.0176
2043.00,0.0175
2042.00,0.0175
2041.00,0.0177
2040.00,0.0178
2039.00,0.0178
2038.00,0.0178
2037.00,0.0177
2036.00,0.0177
2035.00,0.0176
2034.00,0.0174
2033.00,0.0173
2032.00,0.0173
2031.00,0.0173
2030.00,0.0175
2029.00,0.0176
2028.00,0.0177
2027.00,0.0177
2026.00,0.0177
2025.00,0.0176
2024.00,0.0176
2023.00,0.0175
2022.00,0.0175
2021.00,0.0175
2020.00,0.0175
2019.00,0.0174
2018.00,0.0173
2017.00,0.0172
2016.00,0.0172
2015.00,0.0172
2014.00,0.0174
2013.00,0.0175
2012.00,0.0174
2011.00,0.0172
2010.00,0.0170
2009.00,0.0169
2008.00,0.0167
2007.00,0.0166
2006.00,0.0166
2005.00,0.0167
2004.00,0.0167
2003.00,0.0168
2002.00,0.0169
2001.00,0.0170
2000.00,0.0171
1999.00,0.0172
1998.00,0.0173
1997.00,0.0174
1996.00,0.0173
1995.00,0.0173
1994.00,0.0171
1993.00,0.0170
1992.00,0.0168
1991.00,0.0167
1990.00,0.0167
1989.00,0.0167
1988.00,0.0167
1987.00,0.0166
1986.00,0.0166
1985.00,0.0167
1984.00,0.0169
1983.00,0.0171
1982.00,0.0174
1981.00,0.0174
1980.00,0.0173
1979.00,0.0171
1978.00,0.0170
1977.00,0.0170
1976.00,0.0170
1975.00,0.0169
1974.00,0.0169
1973.00,0.0169
1972.00,0.0169
1971.00,0.0169
1970.00,0.0169
1969.00,0.0168
1968.00,0.0167
1967.00,0.0165
1966.00,0.0163
1965.00,0.0162
1964.00,0.0163
1963.00,0.0165
1962.00,0.0165
1961.00,0.0165
1960.00,0.0163
1959.00,0.0161
1958.00,0.0160
1957.00,0.0158
1956.00,0.0157
1955.00,0.0157
1954.00,0.0157
1953.00,0.0157
1952.00,0.0157
1951.00,0.0156
1950.00,0.0156
1949.00,0.0155
1948.00,0.0155
1947.00,0.0155
1946.00,0.0156
1945.00,0.0157
1944.00,0.0157
1943.00,0.0155
1942.00,0.0153
1941.00,0.0153
1940.00,0.0153
1939.00,0.0153
1938.00,0.0154
1937.00,0.0154
1936.00,0.0154
1935.00,0.0153
1934.00,0.0153
1933.00,0.0153
1932.00,0.0154
1931.00,0.0154
1930.00,0.0154
1929.00,0.0153
1928.00,0.0152
1927.00,0.0151
1926.00,0.0152
1925.00,0.0153
1924.00,0.0153
1923.00,0.0152
1922.00,0.0150
1921.00,0.0150
1920.00,0.0150
1919.00,0.0150
1918.00,0.0149
1917.00,0.0148
1916.00,0.0147
1915.00,0.0147
1914.00,0.0146
1913.00,0.0146
1912.00,0.0145
1911.00,0.0145
1910.00,0.0145
1909.00,0.0144
1908.00,0.0143
1907.00,0.0143
1906.00,0.0142
1905.00,0.0142
1904.00,0.0142
1903.00,0.0142
1902.00,0.0141
1901.00,0.0140
1900.00,0.0140
1899.00,0.0140
1898.00,0.0140
1897.00,0.0141
1896.00,0.0141
1895.00,0.0140
1894.00,0.0140
1893.00,0.0140
1892.00,0.0140
1891.00,0.0139
1890.00,0.0137
1889.00,0.0136
1888.00,0.0135
1887.00,0.0135
1886.00,0.0135
1885.00,0.0135
1884.00,0.0135
1883.00,0.0134
1882.00,0.0134
1881.00,0.0134
1880.00,0.0133
1879.00,0.0133
1878.00,0.0132
1877.00,0.0131
1876.00,0.0131
1875.00,0.0130
1874.00,0.0130
1873.00,0.0131
1872.00,0.0133
1871.00,0.0134
1870.00,0.0132
1869.00,0.0130
1868.00,0.0128
1867.00,0.0127
1866.00,0.0127
1865.00,0.0128
1864.00,0.0127
1863.00,0.0126
1862.00,0.0126
1861.00,0.0126
1860.00,0.0126
1859.00,0.0126
1858.00,0.0126
1857.00,0.0126
1856.00,0.0126
1855.00,0.0125
1854.00,0.0124
1853.00,0.0123
1852.00,0.0123
1851.00,0.0122
1850.00,0.0122
1849.00,0.0122
1848.00,0.0122
1847.00,0.0122
1846.00,0.0122
1845.00,0.0121
1844.00,0.0118
1843.00,0.0117
1842.00,0.0118
1841.00,0.0119
1840.00,0.0120
1839.00,0.0119
1838.00,0.0118
1837.00,0.0118
1836.00,0.0117
1835.00,0.0116
1834.00,0.0117
1833.00,0.0119
1832.00,0.0121
1831.00,0.0120
1830.00,0.0117
1829.00,0.0115
1828.00,0.0115
1827.00,0.0116
1826.00,0.0116
1825.00,0.0114
1824.00,0.0113
1823.00,0.0112
1822.00,0.0112
1821.00,0.0112
1820.00,0.0111
1819.00,0.0110
1818.00,0.0109
1817.00,0.0109
1816.00,0.0110
1815.00,0.0110
1814.00,0.0110
1813.00,0.0110
1812.00,0.0110
1811.00,0.0108
1810.00,0.0107
1809.00,0.0107
1808.00,0.0107
1807.00,0.0107
1806.00,0.0108
1805.00,0.0109
1804.00,0.0111
1803.00,0.0111
1802.00,0.0111
1801.00,0.0110
1800.00,0.0110
1799.00,0.0109
1798.00,0.0109
1797.00,0.0110
1796.00,0.0112
1795.00,0.0114
1794.00,0.0114
1793.00,0.0113
1792.00,0.0112
1791.00,0.0112
1790.00,0.0113
1789.00,0.0115
1788.00,0.0116
1787.00,0.0116
1786.00,0.0116
1785.00,0.0117
1784.00,0.0119
1783.00,0.0121
1782.00,0.0123
1781.00,0.0124
1780.00,0.0124
1779.00,0.0125
1778.00,0.0126
1777.00,0.0128
1776.00,0.0131
1775.00,0.0134
1774.00,0.0136
1773.00,0.0135
1772.00,0.0133
1771.00,0.0133
1770.00,0.0134
1769.00,0.0136
1768.00,0.0137
1767.00,0.0138
1766.00,0.0140
1765.00,0.0142
1764.00,0.0144
1763.00,0.0145
1762.00,0.0144
1761.00,0.0144
1760.00,0.0145
1759.00,0.0146
1758.00,0.0147
1757.00,0.0147
1756.00,0.0147
1755.00,0.0148
1754.00,0.0149
1753.00,0.0150
1752.00,0.0150
1751.00,0.0151
1750.00,0.0152
1749.00,0.0154
1748.00,0.0157
1747.00,0.0159
1746.00,0.0161
1745.00,0.0162
1744.00,0.0164
1743.00,0.0166
1742.00,0.0168
1741.00,0.0169
1740.00,0.0169
1739.00,0.0170
1738.00,0.0172
1737.00,0.0176
1736.00,0.0179
1735.00,0.0179
1734.00,0.0180
1733.00,0.0183
1732.00,0.0188
1731.00,0.0192
1730.00,0.0195
1729.00,0.0198
1728.00,0.0199
1727.00,0.0201
1726.00,0.0204
1725.00,0.0206
1724.00,0.0209
1723.00,0.0211
1722.00,0.0213
1721.00,0.0216
1720.00,0.0219
1719.00,0.0219
1718.00,0.0219
1717.00,0.0221
1716.00,0.0225
1715.00,0.0228
1714.00,0.0230
1713.00,0.0231
1712.00,0.0232
1711.00,0.0232
1710.00,0.0233
1709.00,0.0235
1708.00,0.0237
1707.00,0.0239
1706.00,0.0241
1705.00,0.0242
1704.00,0.0243
1703.00,0.0244
1702.00,0.0245
1701.00,0.0244
1700.00,0.0242
1699.00,0.0242
1698.00,0.0244
1697.00,0.0247
1696.00,0.0248
1695.00,0.0245
1694.00,0.0244
1693.00,0.0245
1692.00,0.0246
1691.00,0.0245
1690.00,0.0245
1689.00,0.0244
1688.00,0.0245
1687.00,0.0247
1686.00,0.0247
1685.00,0.0245
1684.00,0.0246
1683.00,0.0247
1682.00,0.0248
1681.00,0.0249
1680.00,0.0248
1679.00,0.0248
1678.00,0.0248
1677.00,0.0249
1676.00,0.0248
1675.00,0.0248
1674.00,0.0248
1673.00,0.0250
1672.00,0.0251
1671.00,0.0252
1670.00,0.0252
1669.00,0.0253
1668.00,0.0254
1667.00,0.0254
1666.00,0.0254
1665.00,0.0255
1664.00,0.0254
1663.00,0.0254
1662.00,0.0255
1661.00,0.0255
1660.00,0.0256
1659.00,0.0256
1658.00,0.0256
1657.00,0.0257
1656.00,0.0259
1655.00,0.0262
1654.00,0.0263
1653.00,0.0265
1652.00,0.0264
1651.00,0.0263
1650.00,0.0265
1649.00,0.0268
1648.00,0.0269
1647.00,0.0271
1646.00,0.0273
1645.00,0.0274
1644.00,0.0274
1643.00,0.0275
1642.00,0.0276
1641.00,0.0276
1640.00,0.0277
1639.00,0.0278
1638.00,0.0280
1637.00,0.0282
1636.00,0.0286
1635.00,0.0290
1634.00,0.0291
1633.00,0.0291
1632.00,0.0292
1631.00,0.0293
1630.00,0.0295
1629.00,0.0297
1628.00,0.0299
1627.00,0.0302
1626.00,0.0304
1625.00,0.0306
1624.00,0.0308
1623.00,0.0310
1622.00,0.0312
1621.00,0.0313
1620.00,0.0314
1619.00,0.0315
1618.00,0.0315
1617.00,0.0317
1616.00,0.0318
1615.00,0.0320
1614.00,0.0322
1613.00,0.0324
1612.00,0.0324
1611.00,0.0325
1610.00,0.0327
1609.00,0.0329
1608.00,0.0331
1607.00,0.0333
1606.00,0.0334
1605.00,0.0334
1604.00,0.0335
1603.00,0.0336
1602.00,0.0338
1601.00,0.0340
1600.00,0.0341
1599.00,0.0341
1598.00,0.0342
1597.00,0.0343
1596.00,0.0344
1595.00,0.0345
1594.00,0.0346
1593.00,0.0346
1592.00,0.0346
1591.00,0.0347
1590.00,0.0348
1589.00,0.0349
1588.00,0.0349
1587.00,0.0349
1586.00,0.0350
1585.00,0.0350
1584.00,0.0349
1583.00,0.0350
1582.00,0.0350
1581.00,0.0350
1580.00,0.0350
1579.00,0.0350
1578.00,0.0351
1577.00,0.0351
1576.00,0.0352
1575.00,0.0353
1574.00,0.0352
1573.00,0.0352
1572.00,0.0352
1571.00,0.0351
1570.00,0.0352
1569.00,0.0352
1568.00,0.0352
1567.00,0.0352
1566.00,0.0352
1565.00,0.0351
1564.00,0.0350
1563.00,0.0349
1562.00,0.0349
1561.00,0.0348
1560.00,0.0346
1559.00,0.0350
1558.00,0.0354
1557.00,0.0350
1556.00,0.0345
1555.00,0.0343
1554.00,0.0340
1553.00,0.0338
1552.00,0.0337
1551.00,0.0337
1550.00,0.0337
1549.00,0.0335
1548.00,0.0333
1547.00,0.0330
1546.00,0.0328
1545.00,0.0326
1544.00,0.0325
1543.00,0.0323
1542.00,0.0320
1541.00,0.0317
1540.00,0.0319
1539.00,0.0320
1538.00,0.0318
1537.00,0.0315
1536.00,0.0314
1535.00,0.0314
1534.00,0.0315
1533.00,0.0315
1532.00,0.0315
1531.00,0.0313
1530.00,0.0311
1529.00,0.0309
1528.00,0.0308
1527.00,0.0307
1526.00,0.0306
1525.00,0.0304
1524.00,0.0303
1523.00,0.0302
1522.00,0.0300
1521.00,0.0300
1520.00,0.0301
1519.00,0.0302
1518.00,0.0301
1517.00,0.0300
1516.00,0.0298
1515.00,0.0295
1514.00,0.0293
1513.00,0.0291
1512.00,0.0290
1511.00,0.0290
1510.00,0.0291
1509.00,0.0292
1508.00,0.0293
1507.00,0.0295
1506.00,0.0293
1505.00,0.0287
1504.00,0.0284
1503.00,0.0282
1502.00,0.0281
1501.00,0.0280
1500.00,0.0279
1499.00,0.0277
1498.00,0.0275
1497.00,0.0275
1496.00,0.0277
1495.00,0.0278
1494.00,0.0278
1493.00,0.0279
1492.00,0.0280
1491.00,0.0280
1490.00,0.0281
1489.00,0.0283
1488.00,0.0284
1487.00,0.0283
1486.00,0.0282
1485.00,0.0280
1484.00,0.0279
1483.00,0.0279
1482.00,0.0278
1481.00,0.0278
1480.00,0.0278
1479.00,0.0278
1478.00,0.0278
1477.00,0.0278
1476.00,0.0278
1475.00,0.0277
1474.00,0.0276
1473.00,0.0276
1472.00,0.0277
1471.00,0.0278
1470.00,0.0277
1469.00,0.0277
1468.00,0.0277
1467.00,0.0278
1466.00,0.0278
1465.00,0.0279
1464.00,0.0279
1463.00,0.0279
1462.00,0.0279
1461.00,0.0280
1460.00,0.0280
1459.00,0.0280
1458.00,0.0279
1457.00,0.0280
1456.00,0.0283
1455.00,0.0284
1454.00,0.0286
1453.00,0.0287
1452.00,0.0288
1451.00,0.0289
1450.00,0.0290
1449.00,0.0292
1448.00,0.0294
1447.00,0.0296
1446.00,0.0296
1445.00,0.0296
1444.00,0.0297
1443.00,0.0297
1442.00,0.0297
1441.00,0.0297
1440.00,0.0298
1439.00,0.0298
1438.00,0.0298
1437.00,0.0300
1436.00,0.0302
1435.00,0.0304
1434.00,0.0305
1433.00,0.0305
1432.00,0.0306
1431.00,0.0307
1430.00,0.0307
1429.00,0.0308
1428.00,0.0308
1427.00,0.0308
1426.00,0.0308
1425.00,0.0308
1424.00,0.0309
1423.00,0.0310
1422.00,0.0310
1421.00,0.0309
1420.00,0.0309
1419.00,0.0311
1418.00,0.0313
1417.00,0.0315
1416.00,0.0315
1415.00,0.0315
1414.00,0.0314
1413.00,0.0313
1412.00,0.0313
1411.00,0.0314
1410.00,0.0314
1409.00,0.0313
1408.00,0.0313
1407.00,0.0314
1406.00,0.0314
1405.00,0.0315
1404.00,0.0316
1403.00,0.0317
1402.00,0.0317
1401.00,0.0317
1400.00,0.0318
1399.00,0.0319
1398.00,0.0320
1397.00,0.0321
1396.00,0.0322
1395.00,0.0323
1394.00,0.0323
1393.00,0.0322
1392.00,0.0321
1391.00,0.0321
1390.00,0.0321
1389.00,0.0321
1388.00,0.0322
1387.00,0.0324
1386.00,0.0325
1385.00,0.0326
1384.00,0.0326
1383.00,0.0326
1382.00,0.0326
1381.00,0.0327
1380.00,0.0327
1379.00,0.0327
1378.00,0.0328
1377.00,0.0329
1376.00,0.0330
1375.00,0.0332
1374.00,0.0334
1373.00,0.0334
1372.00,0.0334
1371.00,0.0333
1370.00,0.0334
1369.00,0.0334
1368.00,0.0334
1367.00,0.0334
1366.00,0.0333
1365.00,0.0333
1364.00,0.0334
1363.00,0.0336
1362.00,0.0338
1361.00,0.0338
1360.00,0.0338
1359.00,0.0337
1358.00,0.0336
1357.00,0.0336
1356.00,0.0335
1355.00,0.0335
1354.00,0.0335
1353.00,0.0335
1352.00,0.0335
1351.00,0.0335
1350.00,0.0335
1349.00,0.0335
1348.00,0.0336
1347.00,0.0336
1346.00,0.0336
1345.00,0.0336
1344.00,0.0336
1343.00,0.0336
1342.00,0.0336
1341.00,0.0336
1340.00,0.0337
1339.00,0.0338
1338.00,0.0339
1337.00,0.0339
1336.00,0.0338
1335.00,0.0337
1334.00,0.0337
1333.00,0.0337
1332.00,0.0337
1331.00,0.0337
1330.00,0.0336
1329.00,0.0336
1328.00,0.0336
1327.00,0.0336
1326.00,0.0336
1325.00,0.0337
1324.00,0.0337
1323.00,0.0337
1322.00,0.0336
1321.00,0.0336
1320.00,0.0336
1319.00,0.0337
1318.00,0.0337
1317.00,0.0338
1316.00,0.0338
1315.00,0.0339
1314.00,0.0339
1313.00,0.0339
1312.00,0.0340
1311.00,0.0340
1310.00,0.0340
1309.00,0.0340
1308.00,0.0340
1307.00,0.0340
1306.00,0.0340
1305.00,0.0341
1304.00,0.0342
1303.00,0.0342
1302.00,0.0343
1301.00,0.0343
1300.00,0.0344
1299.00,0.0344
1298.00,0.0344
1297.00,0.0345
1296.00,0.0345
1295.00,0.0346
1294.00,0.0346
1293.00,0.0347
1292.00,0.0348
1291.00,0.0348
1290.00,0.0349
1289.00,0.0350
1288.00,0.0351
1287.00,0.0352
1286.00,0.0352
1285.00,0.0352
1284.00,0.0353
1283.00,0.0353
1282.00,0.0354
1281.00,0.0355
1280.00,0.0355
1279.00,0.0356
1278.00,0.0357
1277.00,0.0358
1276.00,0.0358
1275.00,0.0359
1274.00,0.0359
1273.00,0.0359
1272.00,0.0359
1271.00,0.0360
1270.00,0.0360
1269.00,0.0360
1268.00,0.0361
1267.00,0.0361
1266.00,0.0361
1265.00,0.0361
1264.00,0.0360
1263.00,0.0359
1262.00,0.0359
1261.00,0.0360
1260.00,0.0361
1259.00,0.0362
1258.00,0.0363
1257.00,0.0363
1256.00,0.0364
1255.00,0.0365
1254.00,0.0366
1253.00,0.0367
1252.00,0.0368
1251.00,0.0369
1250.00,0.0369
1249.00,0.0370
1248.00,0.0370
1247.00,0.0370
1246.00,0.0370
1245.00,0.0371
1244.00,0.0371
1243.00,0.0371
1242.00,0.0371
1241.00,0.0371
1240.00,0.0371
1239.00,0.0371
1238.00,0.0371
1237.00,0.0371
1236.00,0.0372
1235.00,0.0372
1234.00,0.0371
1233.00,0.0371
1232.00,0.0371
1231.00,0.0372
1230.00,0.0372
1229.00,0.0373
1228.00,0.0373
1227.00,0.0373
1226.00,0.0373
1225.00,0.0373
1224.00,0.0372
1223.00,0.0372
1222.00,0.0372
1221.00,0.0371
1220.00,0.0371
1219.00,0.0371
1218.00,0.0371
1217.00,0.0371
1216.00,0.0371
1215.00,0.0371
1214.00,0.0370
1213.00,0.0370
1212.00,0.0370
1211.00,0.0370
1210.00,0.0370
1209.00,0.0369
1208.00,0.0369
1207.00,0.0369
1206.00,0.0369
1205.00,0.0369
1204.00,0.0368
1203.00,0.0368
1202.00,0.0368
1201.00,0.0368
1200.00,0.0368
1199.00,0.0367
1198.00,0.0366
1197.00,0.0366
1196.00,0.0366
1195.00,0.0366
1194.00,0.0366
1193.00,0.0365
1192.00,0.0365
1191.00,0.0365
1190.00,0.0365
1189.00,0.0365
1188.00,0.0365
1187.00,0.0366
1186.00,0.0366
1185.00,0.0366
1184.00,0.0365
1183.00,0.0364
1182.00,0.0363
1181.00,0.0362
1180.00,0.0362
1179.00,0.0363
1178.00,0.0363
1177.00,0.0363
1176.00,0.0363
1175.00,0.0363
1174.00,0.0362
1173.00,0.0362
1172.00,0.0361
1171.00,0.0360
1170.00,0.0360
1169.00,0.0360
1168.00,0.0360
1167.00,0.0361
1166.00,0.0360
1165.00,0.0360
1164.00,0.0359
1163.00,0.0359
1162.00,0.0358
1161.00,0.0357
1160.00,0.0357
1159.00,0.0357
1158.00,0.0357
1157.00,0.0357
1156.00,0.0356
1155.00,0.0356
1154.00,0.0355
1153.00,0.0355
1152.00,0.0354
1151.00,0.0354
1150.00,0.0353
1149.00,0.0353
1148.00,0.0353
1147.00,0.0354
1146.00,0.0355
1145.00,0.0355
1144.00,0.0354
1143.00,0.0353
1142.00,0.0351
1141.00,0.0350
1140.00,0.0350
1139.00,0.0350
1138.00,0.0350
1137.00,0.0350
1136.00,0.0350
1135.00,0.0350
1134.00,0.0350
1133.00,0.0350
1132.00,0.0350
1131.00,0.0349
1130.00,0.0348
1129.00,0.0348
1128.00,0.0348
1127.00,0.0348
1126.00,0.0348
1125.00,0.0347
1124.00,0.0346
1123.00,0.0345
1122.00,0.0344
1121.00,0.0343
1120.00,0.0343
1119.00,0.0343
1118.00,0.0344
1117.00,0.0344
1116.00,0.0344
1115.00,0.0343
1114.00,0.0342
1113.00,0.0341
1112.00,0.0340
1111.00,0.0339
1110.00,0.0339
1109.00,0.0339
1108.00,0.0339
1107.00,0.0340
1106.00,0.0340
1105.00,0.0340
1104.00,0.0340
1103.00,0.0340
1102.00,0.0339
1101.00,0.0338
1100.00,0.0338
1099.00,0.0338
1098.00,0.0338
1097.00,0.0338
1096.00,0.0337
1095.00,0.0336
1094.00,0.0336
1093.00,0.0337
1092.00,0.0338
1091.00,0.0339
1090.00,0.0339
1089.00,0.0339
1088.00,0.0339
1087.00,0.0340
1086.00,0.0339
1085.00,0.0338
1084.00,0.0337
1083.00,0.0338
1082.00,0.0339
1081.00,0.0339
1080.00,0.0338
1079.00,0.0338
1078.00,0.0338
1077.00,0.0338
1076.00,0.0339
1075.00,0.0340
1074.00,0.0340
1073.00,0.0341
1072.00,0.0341
1071.00,0.0341
1070.00,0.0341
1069.00,0.0340
1068.00,0.0340
1067.00,0.0340
1066.00,0.0340
1065.00,0.0341
1064.00,0.0341
1063.00,0.0340
1062.00,0.0340
1061.00,0.0340
1060.00,0.0340
1059.00,0.0341
1058.00,0.0340
1057.00,0.0340
1056.00,0.0339
1055.00,0.0339
1054.00,0.0340
1053.00,0.0342
1052.00,0.0343
1051.00,0.0345
1050.00,0.0346
1049.00,0.0348
1048.00,0.0348
1047.00,0.0349
1046.00,0.0349
1045.00,0.0349
1044.00,0.0348
1043.00,0.0348
1042.00,0.0347
1041.00,0.0346
1040.00,0.0345
1039.00,0.0344
1038.00,0.0344
1037.00,0.0344
1036.00,0.0345
1035.00,0.0345
1034.00,0.0344
1033.00,0.0344
1032.00,0.0344
1031.00,0.0344
1030.00,0.0343
1029.00,0.0343
1028.00,0.0342
1027.00,0.0342
1026.00,0.0341
1025.00,0.0341
1024.00,0.0340
1023.00,0.0341
1022.00,0.0341
1021.00,0.0340
1020.00,0.0340
1019.00,0.0340
1018.00,0.0340
1017.00,0.0339
1016.00,0.0338
1015.00,0.0338
1014.00,0.0339
1013.00,0.0340
1012.00,0.0340
1011.00,0.0341
1010.00,0.0342
1009.00,0.0342
1008.00,0.0342
1007.00,0.0342
1006.00,0.0342
1005.00,0.0342
1004.00,0.0343
1003.00,0.0343
1002.00,0.0343
1001.00,0.0342
1000.00,0.0342
999.00,0.0342
998.00,0.0342
997.00,0.0341
996.00,0.0340
995.00,0.0339
994.00,0.0339
993.00,0.0339
992.00,0.0338
991.00,0.0337
990.00,0.0336
989.00,0.0336
988.00,0.0336
987.00,0.0337
986.00,0.0337
985.00,0.0338
984.00,0.0338
983.00,0.0337
982.00,0.0337
981.00,0.0336
980.00,0.0336
979.00,0.0336
978.00,0.0336
977.00,0.0336
976.00,0.0336
975.00,0.0335
974.00,0.0333
973.00,0.0332
972.00,0.0332
971.00,0.0333
970.00,0.0334
969.00,0.0334
968.00,0.0334
967.00,0.0333
966.00,0.0332
965.00,0.0332
964.00,0.0332
963.00,0.0332
962.00,0.0332
961.00,0.0331
960.00,0.0331
959.00,0.0330
958.00,0.0330
957.00,0.0329
956.00,0.0329
955.00,0.0329
954.00,0.0331
953.00,0.0332
952.00,0.0332
951.00,0.0331
950.00,0.0331
949.00,0.0331
948.00,0.0332
947.00,0.0332
946.00,0.0333
945.00,0.0333
944.00,0.0333
943.00,0.0332
942.00,0.0332
941.00,0.0332
940.00,0.0332
939.00,0.0332
938.00,0.0333
937.00,0.0333
936.00,0.0334
935.00,0.0334
934.00,0.0335
933.00,0.0335
932.00,0.0334
931.00,0.0333
930.00,0.0333
929.00,0.0334
928.00,0.0335
927.00,0.0336
926.00,0.0337
925.00,0.0338
924.00,0.0338
923.00,0.0339
922.00,0.0339
921.00,0.0339
920.00,0.0339
919.00,0.0340
918.00,0.0341
917.00,0.0342
916.00,0.0343
915.00,0.0344
914.00,0.0343
913.00,0.0343
912.00,0.0343
911.00,0.0344
910.00,0.0345
909.00,0.0346
908.00,0.0347
907.00,0.0347
906.00,0.0347
905.00,0.0347
904.00,0.0346
903.00,0.0346
902.00,0.0347
901.00,0.0348
900.00,0.0349
899.00,0.0350
898.00,0.0350
897.00,0.0350
896.00,0.0350
895.00,0.0350
894.00,0.0350
893.00,0.0351
892.00,0.0351
891.00,0.0351
890.00,0.0351
889.00,0.0351
888.00,0.0351
887.00,0.0352
886.00,0.0353
885.00,0.0354
884.00,0.0355
883.00,0.0355
882.00,0.0356
881.00,0.0357
880.00,0.0357
879.00,0.0357
878.00,0.0355
877.00,0.0353
876.00,0.0353
875.00,0.0353
874.00,0.0353
873.00,0.0354
872.00,0.0354
871.00,0.0355
870.00,0.0354
869.00,0.0354
868.00,0.0354
867.00,0.0354
866.00,0.0354
865.00,0.0353
864.00,0.0352
863.00,0.0353
862.00,0.0354
861.00,0.0356
860.00,0.0358
859.00,0.0360
858.00,0.0359
857.00,0.0358
856.00,0.0357
855.00,0.0357
854.00,0.0356
853.00,0.0355
852.00,0.0354
851.00,0.0354
850.00,0.0354
849.00,0.0355
848.00,0.0357
847.00,0.0358
846.00,0.0359
845.00,0.0360
844.00,0.0360
843.00,0.0360
842.00,0.0361
841.00,0.0362
840.00,0.0363
839.00,0.0364
838.00,0.0365
837.00,0.0367
836.00,0.0368
835.00,0.0368
834.00,0.0367
833.00,0.0367
832.00,0.0368
831.00,0.0370
830.00,0.0371
829.00,0.0371
828.00,0.0371
827.00,0.0371
826.00,0.0370
825.00,0.0370
824.00,0.0371
823.00,0.0372
822.00,0.0372
821.00,0.0373
820.00,0.0373
819.00,0.0375
818.00,0.0376
817.00,0.0376
816.00,0.0375
815.00,0.0375
814.00,0.0374
813.00,0.0374
812.00,0.0374
811.00,0.0374
810.00,0.0375
809.00,0.0376
808.00,0.0376
807.00,0.0377
806.00,0.0376
805.00,0.0376
804.00,0.0374
803.00,0.0374
802.00,0.0375
801.00,0.0377
800.00,0.0379
799.00,0.0379
798.00,0.0378
797.00,0.0378
796.00,0.0380
795.00,0.0382
794.00,0.0383
793.00,0.0383
792.00,0.0383
791.00,0.0385
790.00,0.0388
789.00,0.0390
788.00,0.0390
787.00,0.0390
786.00,0.0391
785.00,0.0393
784.00,0.0395
783.00,0.0397
782.00,0.0398
781.00,0.0398
780.00,0.0398
779.00,0.0398
778.00,0.0398
777.00,0.0400
776.00,0.0401
775.00,0.0401
774.00,0.0401
773.00,0.0402
772.00,0.0403
771.00,0.0405
770.00,0.0405
769.00,0.0404
768.00,0.0404
767.00,0.0404
766.00,0.0404
765.00,0.0405
764.00,0.0406
763.00,0.0407
762.00,0.0407
761.00,0.0408
760.00,0.0409
759.00,0.0410
758.00,0.0412
757.00,0.0413
756.00,0.0414
755.00,0.0416
754.00,0.0417
753.00,0.0418
752.00,0.0419
751.00,0.0419
750.00,0.0419
749.00,0.0419
748.00,0.0418
747.00,0.0418
746.00,0.0419
745.00,0.0419
744.00,0.0419
743.00,0.0419
742.00,0.0418
741.00,0.0417
740.00,0.0416
739.00,0.0416
738.00,0.0416
737.00,0.0416
736.00,0.0417
735.00,0.0417
734.00,0.0417
733.00,0.0416
732.00,0.0417
731.00,0.0418
730.00,0.0419
729.00,0.0418
728.00,0.0418
727.00,0.0418
726.00,0.0418
725.00,0.0418
724.00,0.0418
723.00,0.0420
722.00,0.0421
721.00,0.0422
720.00,0.0423
719.00,0.0422
718.00,0.0421
717.00,0.0420
716.00,0.0420
715.00,0.0421
714.00,0.0423
713.00,0.0426
712.00,0.0429
711.00,0.0430
710.00,0.0430
709.00,0.0429
708.00,0.0428
707.00,0.0430
706.00,0.0434
705.00,0.0439
704.00,0.0442
703.00,0.0442
702.00,0.0440
701.00,0.0438
700.00,0.0437
699.00,0.0437
698.00,0.0438
697.00,0.0440
696.00,0.0440
695.00,0.0439
694.00,0.0437
693.00,0.0434
692.00,0.0434
691.00,0.0436
690.00,0.0440
689.00,0.0441
688.00,0.0440
687.00,0.0437
686.00,0.0435
685.00,0.0433
684.00,0.0433
683.00,0.0435
682.00,0.0438
681.00,0.0440
680.00,0.0442
679.00,0.0443
678.00,0.0444
677.00,0.0447
676.00,0.0452
675.00,0.0456
674.00,0.0459
673.00,0.0457
672.00,0.0454
671.00,0.0452
670.00,0.0453
669.00,0.0462
668.00,0.0477
667.00,0.0485
666.00,0.0481
665.00,0.0474
664.00,0.0468
663.00,0.0461
662.00,0.0454
661.00,0.0451
660.00,0.0454
659.00,0.0462
658.00,0.0469
657.00,0.0471
656.00,0.0471
655.00,0.0471
654.00,0.0474
653.00,0.0477
652.00,0.0478
651.00,0.0478
650.00,0.0480
