Created as New Dataset,
cm-1,A
4000.00,-0.0004
3999.00,-0.0004
3998.00,-0.0004
3997.00,-0.0003
3996.00,-0.0003
3995.00,-0.0003
3994.00,-0.0002
3993.00,-0.0002
3992.00,-0.0002
3991.00,-0.0003
3990.00,-0.0003
3989.00,-0.0004
3988.00,-0.0004
3987.00,-0.0004
3986.00,-0.0004
3985.00,-0.0003
3984.00,-0.0003
3983.00,-0.0003
3982.00,-0.0003
3981.00,-0.0003
3980.00,-0.0003
3979.00,-0.0003
3978.00,-0.0002
3977.00,-0.0002
3976.00,-0.0002
3975.00,-0.0002
3974.00,-0.0002
3973.00,-0.0002
3972.00,-0.0002
3971.00,-0.0002
3970.00,-0.0002
3969.00,-0.0003
3968.00,-0.0003
3967.00,-0.0003
3966.00,-0.0003
3965.00,-0.0003
3964.00,-0.0002
3963.00,-0.0002
3962.00,-0.0002
3961.00,-0.0002
3960.00,-0.0001
3959.00,-0.0001
3958.00,-0.0001
3957.00,-0.0001
3956.00,-0.0001
3955.00,-0.0001
3954.00,-0.0001
3953.00,-0.0001
3952.00,-0.0001
3951.00,0.0000
3950.00,0.0001
3949.00,0.0001
3948.00,0.0001
3947.00,0.0001
3946.00,0.0002
3945.00,0.0002
3944.00,0.0002
3943.00,0.0001
3942.00,0.0001
3941.00,0.0001
3940.00,0.0001
3939.00,0.0000
3938.00,-0.0000
3937.00,-0.0001
3936.00,-0.0001
3935.00,0.0000
3934.00,0.0001
3933.00,0.0001
3932.00,0.0001
3931.00,0.0002
3930.00,0.0002
3929.00,0.0002
3928.00,0.0003
3927.00,0.0003
3926.00,0.0003
3925.00,0.0002
3924.00,0.0002
3923.00,0.0002
3922.00,0.0003
3921.00,0.0003
3920.00,0.0003
3919.00,0.0003
3918.00,0.0003
3917.00,0.0003
3916.00,0.0002
3915.00,0.0002
3914.00,0.0001
3913.00,0.0000
3912.00,-0.0001
3911.00,-0.0001
3910.00,-0.0001
3909.00,-0.0000
3908.00,0.0002
3907.00,0.0003
3906.00,0.0004
3905.00,0.0005
3904.00,0.0006
3903.00,0.0008
3902.00,0.0010
3901.00,0.0011
3900.00,0.0010
3899.00,0.0007
3898.00,0.0005
3897.00,0.0004
3896.00,0.0004
3895.00,0.0004
3894.00,0.0004
3893.00,0.0004
3892.00,0.0003
3891.00,0.0002
3890.00,0.0002
3889.00,0.0004
3888.00,0.0006
3887.00,0.0007
3886.00,0.0005
3885.00,0.0005
3884.00,0.0007
3883.00,0.0010
3882.00,0.0012
3881.00,0.0010
3880.00,0.0006
3879.00,0.0005
3878.00,0.0005
3877.00,0.0007
3876.00,0.0007
3875.00,0.0005
3874.00,0.0004
3873.00,0.0005
3872.00,0.0007
3871.00,0.0008
3870.00,0.0007
3869.00,0.0005
3868.00,0.0007
3867.00,0.0009
3866.00,0.0009
3865.00,0.0007
3864.00,0.0006
3863.00,0.0006
3862.00,0.0006
3861.00,0.0005
3860.00,0.0004
3859.00,0.0004
3858.00,0.0004
3857.00,0.0006
3856.00,0.0008
3855.00,0.0008
3854.00,0.0007
3853.00,0.0007
3852.00,0.0008
3851.00,0.0009
3850.00,0.0008
3849.00,0.0006
3848.00,0.0004
3847.00,0.0002
3846.00,0.0002
3845.00,0.0002
3844.00,0.0002
3843.00,0.0003
3842.00,0.0005
3841.00,0.0006
3840.00,0.0008
3839.00,0.0008
3838.00,0.0008
3837.00,0.0009
3836.00,0.0009
3835.00,0.0009
3834.00,0.0009
3833.00,0.0007
3832.00,0.0005
3831.00,0.0004
3830.00,0.0004
3829.00,0.0005
3828.00,0.0005
3827.00,0.0004
3826.00,0.0003
3825.00,0.0004
3824.00,0.0006
3823.00,0.0008
3822.00,0.0007
3821.00,0.0004
3820.00,0.0004
3819.00,0.0007
3818.00,0.0009
3817.00,0.0008
3816.00,0.0005
3815.00,0.0003
3814.00,0.0003
3813.00,0.0003
3812.00,0.0002
3811.00,0.0001
3810.00,0.0001
3809.00,0.0001
3808.00,0.0001
3807.00,0.0000
3806.00,0.0000
3805.00,0.0003
3804.00,0.0006
3803.00,0.0008
3802.00,0.0006
3801.00,0.0005
3800.00,0.0006
3799.00,0.0008
3798.00,0.0008
3797.00,0.0006
3796.00,0.0004
3795.00,0.0003
3794.00,0.0003
3793.00,0.0003
3792.00,0.0002
3791.00,0.0001
3790.00,0.0001
3789.00,0.0001
3788.00,0.0001
3787.00,0.0001
3786.00,0.0001
3785.00,0.0001
3784.00,0.0001
3783.00,0.0002
3782.00,0.0003
3781.00,0.0003
3780.00,0.0002
3779.00,0.0001
3778.00,0.0002
3777.00,0.0002
3776.00,0.0002
3775.00,0.0001
3774.00,0.0000
3773.00,0.0001
3772.00,0.0001
3771.00,0.0001
3770.00,0.0001
3769.00,0.0002
3768.00,0.0004
3767.00,0.0006
3766.00,0.0005
3765.00,0.0004
3764.00,0.0003
3763.00,0.0004
3762.00,0.0006
3761.00,0.0006
3760.00,0.0005
3759.00,0.0005
3758.00,0.0005
3757.00,0.0005
3756.00,0.0005
3755.00,0.0006
3754.00,0.0006
3753.00,0.0005
3752.00,0.0004
3751.00,0.0005
3750.00,0.0007
3749.00,0.0008
3748.00,0.0011
3747.00,0.0014
3746.00,0.0015
3745.00,0.0012
3744.00,0.0009
3743.00,0.0008
3742.00,0.0009
3741.00,0.0010
3740.00,0.0008
3739.00,0.0007
3738.00,0.0008
3737.00,0.0009
3736.00,0.0010
3735.00,0.0013
3734.00,0.0014
3733.00,0.0014
3732.00,0.0012
3731.00,0.0009
3730.00,0.0008
3729.00,0.0009
3728.00,0.0009
3727.00,0.0008
3726.00,0.0009
3725.00,0.0010
3724.00,0.0012
3723.00,0.0012
3722.00,0.0012
3721.00,0.0012
3720.00,0.0012
3719.00,0.0012
3718.00,0.0011
3717.00,0.0011
3716.00,0.0012
3715.00,0.0014
3714.00,0.0016
3713.00,0.0018
3712.00,0.0021
3711.00,0.0025
3710.00,0.0028
3709.00,0.0029
3708.00,0.0029
3707.00,0.0029
3706.00,0.0029
3705.00,0.0030
3704.00,0.0032
3703.00,0.0035
3702.00,0.0038
3701.00,0.0041
3700.00,0.0042
3699.00,0.0043
3698.00,0.0044
3697.00,0.0043
3696.00,0.0043
3695.00,0.0043
3694.00,0.0044
3693.00,0.0045
3692.00,0.0045
3691.00,0.0046
3690.00,0.0047
3689.00,0.0047
3688.00,0.0047
3687.00,0.0045
3686.00,0.0043
3685.00,0.0041
3684.00,0.0038
3683.00,0.0035
3682.00,0.0034
3681.00,0.0032
3680.00,0.0031
3679.00,0.0031
3678.00,0.0034
3677.00,0.0037
3676.00,0.0039
3675.00,0.0040
3674.00,0.0041
3673.00,0.0043
3672.00,0.0044
3671.00,0.0042
3670.00,0.0041
3669.00,0.0041
3668.00,0.0042
3667.00,0.0043
3666.00,0.0042
3665.00,0.0040
3664.00,0.0039
3663.00,0.0038
3662.00,0.0038
3661.00,0.0039
3660.00,0.0040
3659.00,0.0042
3658.00,0.0044
3657.00,0.0046
3656.00,0.0048
3655.00,0.0050
3654.00,0.0053
3653.00,0.0056
3652.00,0.0056
3651.00,0.0055
3650.00,0.0057
3649.00,0.0063
3648.00,0.0069
3647.00,0.0069
3646.00,0.0066
3645.00,0.0063
3644.00,0.0060
3643.00,0.0057
3642.00,0.0055
3641.00,0.0054
3640.00,0.0053
3639.00,0.0053
3638.00,0.0053
3637.00,0.0054
3636.00,0.0055
3635.00,0.0055
3634.00,0.0054
3633.00,0.0054
3632.00,0.0056
3631.00,0.0059
3630.00,0.0062
3629.00,0.0065
3628.00,0.0069
3627.00,0.0071
3626.00,0.0072
3625.00,0.0072
3624.00,0.0071
3623.00,0.0072
3622.00,0.0074
3621.00,0.0077
3620.00,0.0079
3619.00,0.0081
3618.00,0.0081
3617.00,0.0080
3616.00,0.0078
3615.00,0.0075
3614.00,0.0072
3613.00,0.0070
3612.00,0.0070
3611.00,0.0071
3610.00,0.0072
3609.00,0.0071
3608.00,0.0071
3607.00,0.0070
3606.00,0.0070
3605.00,0.0069
3604.00,0.0068
3603.00,0.0067
3602.00,0.0066
3601.00,0.0066
3600.00,0.0067
3599.00,0.0067
3598.00,0.0068
3597.00,0.0068
3596.00,0.0069
3595.00,0.0069
3594.00,0.0069
3593.00,0.0069
3592.00,0.0069
3591.00,0.0069
3590.00,0.0070
3589.00,0.0071
3588.00,0.0073
3587.00,0.0076
3586.00,0.0077
3585.00,0.0076
3584.00,0.0075
3583.00,0.0073
3582.00,0.0072
3581.00,0.0071
3580.00,0.0070
3579.00,0.0071
3578.00,0.0070
3577.00,0.0070
3576.00,0.0070
3575.00,0.0070
3574.00,0.0069
3573.00,0.0070
3572.00,0.0070
3571.00,0.0072
3570.00,0.0074
3569.00,0.0076
3568.00,0.0079
3567.00,0.0082
3566.00,0.0084
3565.00,0.0085
3564.00,0.0083
3563.00,0.0081
3562.00,0.0079
3561.00,0.0078
3560.00,0.0076
3559.00,0.0076
3558.00,0.0075
3557.00,0.0075
3556.00,0.0074
3555.00,0.0075
3554.00,0.0075
3553.00,0.0076
3552.00,0.0077
3551.00,0.0078
3550.00,0.0079
3549.00,0.0079
3548.00,0.0080
3547.00,0.0081
3546.00,0.0082
3545.00,0.0082
3544.00,0.0082
3543.00,0.0082
3542.00,0.0081
3541.00,0.0080
3540.00,0.0080
3539.00,0.0080
3538.00,0.0080
3537.00,0.0081
3536.00,0.0081
3535.00,0.0082
3534.00,0.0082
3533.00,0.0081
3532.00,0.0081
3531.00,0.0081
3530.00,0.0081
3529.00,0.0082
3528.00,0.0083
3527.00,0.0085
3526.00,0.0086
3525.00,0.0087
3524.00,0.0087
3523.00,0.0087
3522.00,0.0087
3521.00,0.0086
3520.00,0.0086
3519.00,0.0085
3518.00,0.0085
3517.00,0.0086
3516.00,0.0086
3515.00,0.0087
3514.00,0.0087
3513.00,0.0087
3512.00,0.0088
3511.00,0.0089
3510.00,0.0089
3509.00,0.0090
3508.00,0.0090
3507.00,0.0091
3506.00,0.0091
3505.00,0.0091
3504.00,0.0091
3503.00,0.0091
3502.00,0.0092
3501.00,0.0093
3500.00,0.0093
3499.00,0.0093
3498.00,0.0093
3497.00,0.0092
3496.00,0.0092
3495.00,0.0092
3494.00,0.0092
3493.00,0.0092
3492.00,0.0092
3491.00,0.0092
3490.00,0.0092
3489.00,0.0092
3488.00,0.0092
3487.00,0.0093
3486.00,0.0094
3485.00,0.0096
3484.00,0.0096
3483.00,0.0097
3482.00,0.0097
3481.00,0.0097
3480.00,0.0097
3479.00,0.0097
3478.00,0.0097
3477.00,0.0098
3476.00,0.0098
3475.00,0.0098
3474.00,0.0098
3473.00,0.0099
3472.00,0.0099
3471.00,0.0099
3470.00,0.0099
3469.00,0.0100
3468.00,0.0100
3467.00,0.0100
3466.00,0.0100
3465.00,0.0101
3464.00,0.0101
3463.00,0.0101
3462.00,0.0101
3461.00,0.0101
3460.00,0.0101
3459.00,0.0101
3458.00,0.0101
3457.00,0.0101
3456.00,0.0101
3455.00,0.0102
3454.00,0.0102
3453.00,0.0103
3452.00,0.0103
3451.00,0.0103
3450.00,0.0104
3449.00,0.0104
3448.00,0.0104
3447.00,0.0105
3446.00,0.0105
3445.00,0.0105
3444.00,0.0105
3443.00,0.0105
3442.00,0.0105
3441.00,0.0105
3440.00,0.0105
3439.00,0.0106
3438.00,0.0106
3437.00,0.0106
3436.00,0.0105
3435.00,0.0106
3434.00,0.0106
3433.00,0.0106
3432.00,0.0106
3431.00,0.0106
3430.00,0.0106
3429.00,0.0106
3428.00,0.0106
3427.00,0.0106
3426.00,0.0107
3425.00,0.0107
3424.00,0.0107
3423.00,0.0108
3422.00,0.0108
3421.00,0.0109
3420.00,0.0109
3419.00,0.0110
3418.00,0.0110
3417.00,0.0110
3416.00,0.0109
3415.00,0.0109
3414.00,0.0109
3413.00,0.0109
3412.00,0.0110
3411.00,0.0110
3410.00,0.0111
3409.00,0.0111
3408.00,0.0111
3407.00,0.0111
3406.00,0.0112
3405.00,0.0112
3404.00,0.0112
3403.00,0.0112
3402.00,0.0112
3401.00,0.0112
3400.00,0.0112
3399.00,0.0112
3398.00,0.0112
3397.00,0.0112
3396.00,0.0112
3395.00,0.0112
3394.00,0.0113
3393.00,0.0113
3392.00,0.0114
3391.00,0.0114
3390.00,0.0114
3389.00,0.0113
3388.00,0.0113
3387.00,0.0113
3386.00,0.0114
3385.00,0.0114
3384.00,0.0114
3383.00,0.0114
3382.00,0.0114
3381.00,0.0113
3380.00,0.0113
3379.00,0.0114
3378.00,0.0114
3377.00,0.0114
3376.00,0.0114
3375.00,0.0114
3374.00,0.0114
3373.00,0.0115
3372.00,0.0115
3371.00,0.0115
3370.00,0.0115
3369.00,0.0115
3368.00,0.0116
3367.00,0.0116
3366.00,0.0116
3365.00,0.0117
3364.00,0.0117
3363.00,0.0117
3362.00,0.0117
3361.00,0.0117
3360.00,0.0116
3359.00,0.0116
3358.00,0.0116
3357.00,0.0117
3356.00,0.0117
3355.00,0.0117
3354.00,0.0117
3353.00,0.0117
3352.00,0.0117
3351.00,0.0116
3350.00,0.0116
3349.00,0.0116
3348.00,0.0116
3347.00,0.0116
3346.00,0.0116
3345.00,0.0117
3344.00,0.0117
3343.00,0.0117
3342.00,0.0118
3341.00,0.0118
3340.00,0.0118
3339.00,0.0118
3338.00,0.0117
3337.00,0.0118
3336.00,0.0118
3335.00,0.0118
3334.00,0.0119
3333.00,0.0119
3332.00,0.0119
3331.00,0.0119
3330.00,0.0118
3329.00,0.0118
3328.00,0.0118
3327.00,0.0118
3326.00,0.0119
3325.00,0.0119
3324.00,0.0119
3323.00,0.0119
3322.00,0.0119
3321.00,0.0118
3320.00,0.0118
3319.00,0.0118
3318.00,0.0118
3317.00,0.0118
3316.00,0.0118
3315.00,0.0119
3314.00,0.0119
3313.00,0.0119
3312.00,0.0119
3311.00,0.0119
3310.00,0.0119
3309.00,0.0119
3308.00,0.0120
3307.00,0.0121
3306.00,0.0121
3305.00,0.0121
3304.00,0.0121
3303.00,0.0121
3302.00,0.0120
3301.00,0.0119
3300.00,0.0119
3299.00,0.0118
3298.00,0.0118
3297.00,0.0119
3296.00,0.0119
3295.00,0.0119
3294.00,0.0119
3293.00,0.0120
3292.00,0.0120
3291.00,0.0120
3290.00,0.0120
3289.00,0.0120
3288.00,0.0120
3287.00,0.0120
3286.00,0.0120
3285.00,0.0120
3284.00,0.0120
3283.00,0.0120
3282.00,0.0120
3281.00,0.0120
3280.00,0.0120
3279.00,0.0120
3278.00,0.0120
3277.00,0.0120
3276.00,0.0120
3275.00,0.0121
3274.00,0.0121
3273.00,0.0121
3272.00,0.0121
3271.00,0.0121
3270.00,0.0120
3269.00,0.0120
3268.00,0.0120
3267.00,0.0120
3266.00,0.0120
3265.00,0.0120
3264.00,0.0120
3263.00,0.0120
3262.00,0.0120
3261.00,0.0120
3260.00,0.0120
3259.00,0.0120
3258.00,0.0121
3257.00,0.0121
3256.00,0.0122
3255.00,0.0122
3254.00,0.0121
3253.00,0.0120
3252.00,0.0120
3251.00,0.0120
3250.00,0.0120
3249.00,0.0121
3248.00,0.0122
3247.00,0.0122
3246.00,0.0123
3245.00,0.0123
3244.00,0.0123
3243.00,0.0122
3242.00,0.0121
3241.00,0.0121
3240.00,0.0121
3239.00,0.0121
3238.00,0.0121
3237.00,0.0122
3236.00,0.0122
3235.00,0.0122
3234.00,0.0122
3233.00,0.0123
3232.00,0.0123
3231.00,0.0123
3230.00,0.0123
3229.00,0.0123
3228.00,0.0122
3227.00,0.0122
3226.00,0.0122
3225.00,0.0122
3224.00,0.0122
3223.00,0.0122
3222.00,0.0123
3221.00,0.0123
3220.00,0.0123
3219.00,0.0122
3218.00,0.0122
3217.00,0.0121
3216.00,0.0121
3215.00,0.0121
3214.00,0.0121
3213.00,0.0121
3212.00,0.0122
3211.00,0.0123
3210.00,0.0123
3209.00,0.0122
3208.00,0.0122
3207.00,0.0122
3206.00,0.0122
3205.00,0.0122
3204.00,0.0122
3203.00,0.0121
3202.00,0.0121
3201.00,0.0121
3200.00,0.0122
3199.00,0.0122
3198.00,0.0122
3197.00,0.0122
3196.00,0.0121
3195.00,0.0121
3194.00,0.0121
3193.00,0.0121
3192.00,0.0121
3191.00,0.0121
3190.00,0.0121
3189.00,0.0121
3188.00,0.0121
3187.00,0.0121
3186.00,0.0120
3185.00,0.0120
3184.00,0.0120
3183.00,0.0120
3182.00,0.0120
3181.00,0.0121
3180.00,0.0121
3179.00,0.0120
3178.00,0.0120
3177.00,0.0120
3176.00,0.0119
3175.00,0.0119
3174.00,0.0120
3173.00,0.0120
3172.00,0.0120
3171.00,0.0120
3170.00,0.0119
3169.00,0.0119
3168.00,0.0118
3167.00,0.0118
3166.00,0.0118
3165.00,0.0119
3164.00,0.0119
3163.00,0.0119
3162.00,0.0118
3161.00,0.0118
3160.00,0.0118
3159.00,0.0118
3158.00,0.0119
3157.00,0.0118
3156.00,0.0118
3155.00,0.0117
3154.00,0.0117
3153.00,0.0117
3152.00,0.0117
3151.00,0.0117
3150.00,0.0117
3149.00,0.0117
3148.00,0.0117
3147.00,0.0117
3146.00,0.0117
3145.00,0.0117
3144.00,0.0117
3143.00,0.0117
3142.00,0.0117
3141.00,0.0117
3140.00,0.0117
3139.00,0.0117
3138.00,0.0117
3137.00,0.0116
3136.00,0.0116
3135.00,0.0116
3134.00,0.0115
3133.00,0.0115
3132.00,0.0115
3131.00,0.0115
3130.00,0.0115
3129.00,0.0115
3128.00,0.0115
3127.00,0.0115
3126.00,0.0114
3125.00,0.0114
3124.00,0.0115
3123.00,0.0115
3122.00,0.0115
3121.00,0.0115
3120.00,0.0115
3119.00,0.0114
3118.00,0.0114
3117.00,0.0113
3116.00,0.0114
3115.00,0.0114
3114.00,0.0114
3113.00,0.0114
3112.00,0.0114
3111.00,0.0114
3110.00,0.0113
3109.00,0.0113
3108.00,0.0112
3107.00,0.0112
3106.00,0.0112
3105.00,0.0112
3104.00,0.0113
3103.00,0.0113
3102.00,0.0112
3101.00,0.0112
3100.00,0.0112
3099.00,0.0112
3098.00,0.0112
3097.00,0.0112
3096.00,0.0112
3095.00,0.0112
3094.00,0.0112
3093.00,0.0111
3092.00,0.0111
3091.00,0.0111
3090.00,0.0111
3089.00,0.0111
3088.00,0.0111
3087.00,0.0111
3086.00,0.0111
3085.00,0.0110
3084.00,0.0110
3083.00,0.0110
3082.00,0.0110
3081.00,0.0110
3080.00,0.0110
3079.00,0.0110
3078.00,0.0109
3077.00,0.0109
3076.00,0.0109
3075.00,0.0109
3074.00,0.0109
3073.00,0.0109
3072.00,0.0109
3071.00,0.0110
3070.00,0.0110
3069.00,0.0109
3068.00,0.0109
3067.00,0.0109
3066.00,0.0109
3065.00,0.0109
3064.00,0.0109
3063.00,0.0108
3062.00,0.0108
3061.00,0.0107
3060.00,0.0107
3059.00,0.0107
3058.00,0.0107
3057.00,0.0107
3056.00,0.0107
3055.00,0.0107
3054.00,0.0107
3053.00,0.0107
3052.00,0.0107
3051.00,0.0106
3050.00,0.0105
3049.00,0.0105
3048.00,0.0104
3047.00,0.0104
3046.00,0.0104
3045.00,0.0105
3044.00,0.0105
3043.00,0.0105
3042.00,0.0104
3041.00,0.0104
3040.00,0.0103
3039.00,0.0103
3038.00,0.0104
3037.00,0.0104
3036.00,0.0104
3035.00,0.0104
3034.00,0.0103
3033.00,0.0103
3032.00,0.0103
3031.00,0.0103
3030.00,0.0103
3029.00,0.0102
3028.00,0.0102
3027.00,0.0101
3026.00,0.0101
3025.00,0.0100
3024.00,0.0100
3023.00,0.0100
3022.00,0.0100
3021.00,0.0100
3020.00,0.0100
3019.00,0.0100
3018.00,0.0099
3017.00,0.0099
3016.00,0.0099
3015.00,0.0099
3014.00,0.0099
3013.00,0.0099
3012.00,0.0099
3011.00,0.0099
3010.00,0.0098
3009.00,0.0098
3008.00,0.0097
3007.00,0.0097
3006.00,0.0096
3005.00,0.0096
3004.00,0.0096
3003.00,0.0095
3002.00,0.0095
3001.00,0.0095
3000.00,0.0094
2999.00,0.0094
2998.00,0.0094
2997.00,0.0093
2996.00,0.0093
2995.00,0.0093
2994.00,0.0092
2993.00,0.0092
2992.00,0.0092
2991.00,0.0091
2990.00,0.0091
2989.00,0.0091
2988.00,0.0090
2987.00,0.0090
2986.00,0.0090
2985.00,0.0089
2984.00,0.0089
2983.00,0.0088
2982.00,0.0088
2981.00,0.0087
2980.00,0.0087
2979.00,0.0088
2978.00,0.0088
2977.00,0.0088
2976.00,0.0088
2975.00,0.0088
2974.00,0.0087
2973.00,0.0087
2972.00,0.0086
2971.00,0.0086
2970.00,0.0085
2969.00,0.0085
2968.00,0.0085
2967.00,0.0085
2966.00,0.0085
2965.00,0.0084
2964.00,0.0084
2963.00,0.0084
2962.00,0.0084
2961.00,0.0084
2960.00,0.0084
2959.00,0.0084
2958.00,0.0084
2957.00,0.0084
2956.00,0.0084
2955.00,0.0084
2954.00,0.0085
2953.00,0.0085
2952.00,0.0086
2951.00,0.0086
2950.00,0.0085
2949.00,0.0085
2948.00,0.0085
2947.00,0.0085
2946.00,0.0086
2945.00,0.0087
2944.00,0.0087
2943.00,0.0087
2942.00,0.0087
2941.00,0.0086
2940.00,0.0085
2939.00,0.0085
2938.00,0.0084
2937.00,0.0084
2936.00,0.0083
2935.00,0.0083
2934.00,0.0082
2933.00,0.0081
2932.00,0.0081
2931.00,0.0080
2930.00,0.0079
2929.00,0.0078
2928.00,0.0077
2927.00,0.0076
2926.00,0.0075
2925.00,0.0075
2924.00,0.0074
2923.00,0.0074
2922.00,0.0074
2921.00,0.0074
2920.00,0.0074
2919.00,0.0074
2918.00,0.0073
2917.00,0.0073
2916.00,0.0074
2915.00,0.0075
2914.00,0.0076
2913.00,0.0077
2912.00,0.0078
2911.00,0.0079
2910.00,0.0079
2909.00,0.0080
2908.00,0.0080
2907.00,0.0080
2906.00,0.0080
2905.00,0.0080
2904.00,0.0079
2903.00,0.0080
2902.00,0.0080
2901.00,0.0080
2900.00,0.0080
2899.00,0.0080
2898.00,0.0080
2897.00,0.0080
2896.00,0.0079
2895.00,0.0079
2894.00,0.0079
2893.00,0.0079
2892.00,0.0080
2891.00,0.0080
2890.00,0.0079
2889.00,0.0079
2888.00,0.0079
2887.00,0.0079
2886.00,0.0079
2885.00,0.0080
2884.00,0.0080
2883.00,0.0080
2882.00,0.0080
2881.00,0.0080
2880.00,0.0080
2879.00,0.0080
2878.00,0.0079
2877.00,0.0079
2876.00,0.0078
2875.00,0.0078
2874.00,0.0077
2873.00,0.0076
2872.00,0.0076
2871.00,0.0076
2870.00,0.0076
2869.00,0.0076
2868.00,0.0076
2867.00,0.0075
2866.00,0.0075
2865.00,0.0075
2864.00,0.0075
2863.00,0.0076
2862.00,0.0076
2861.00,0.0075
2860.00,0.0075
2859.00,0.0074
2858.00,0.0073
2857.00,0.0073
2856.00,0.0072
2855.00,0.0072
2854.00,0.0072
2853.00,0.0072
2852.00,0.0072
2851.00,0.0071
2850.00,0.0071
2849.00,0.0071
2848.00,0.0071
2847.00,0.0072
2846.00,0.0073
2845.00,0.0073
2844.00,0.0074
2843.00,0.0074
2842.00,0.0075
2841.00,0.0075
2840.00,0.0075
2839.00,0.0075
2838.00,0.0076
2837.00,0.0076
2836.00,0.0076
2835.00,0.0075
2834.00,0.0075
2833.00,0.0074
2832.00,0.0074
2831.00,0.0074
2830.00,0.0074
2829.00,0.0074
2828.00,0.0074
2827.00,0.0074
2826.00,0.0074
2825.00,0.0074
2824.00,0.0074
2823.00,0.0073
2822.00,0.0073
2821.00,0.0073
2820.00,0.0073
2819.00,0.0073
2818.00,0.0073
2817.00,0.0072
2816.00,0.0072
2815.00,0.0072
2814.00,0.0072
2813.00,0.0072
2812.00,0.0072
2811.00,0.0071
2810.00,0.0071
2809.00,0.0071
2808.00,0.0071
2807.00,0.0071
2806.00,0.0071
2805.00,0.0071
2804.00,0.0070
2803.00,0.0070
2802.00,0.0070
2801.00,0.0070
2800.00,0.0070
2799.00,0.0070
2798.00,0.0070
2797.00,0.0069
2796.00,0.0069
2795.00,0.0068
2794.00,0.0068
2793.00,0.0068
2792.00,0.0068
2791.00,0.0068
2790.00,0.0068
2789.00,0.0069
2788.00,0.0069
2787.00,0.0069
2786.00,0.0068
2785.00,0.0068
2784.00,0.0068
2783.00,0.0068
2782.00,0.0068
2781.00,0.0068
2780.00,0.0067
2779.00,0.0067
2778.00,0.0067
2777.00,0.0067
2776.00,0.0068
2775.00,0.0068
2774.00,0.0068
2773.00,0.0067
2772.00,0.0066
2771.00,0.0066
2770.00,0.0066
2769.00,0.0066
2768.00,0.0066
2767.00,0.0066
2766.00,0.0066
2765.00,0.0066
2764.00,0.0066
2763.00,0.0066
2762.00,0.0065
2761.00,0.0065
2760.00,0.0065
2759.00,0.0065
2758.00,0.0065
2757.00,0.0065
2756.00,0.0065
2755.00,0.0065
2754.00,0.0065
2753.00,0.0065
2752.00,0.0065
2751.00,0.0065
2750.00,0.0065
2749.00,0.0065
2748.00,0.0065
2747.00,0.0064
2746.00,0.0064
2745.00,0.0063
2744.00,0.0062
2743.00,0.0062
2742.00,0.0062
2741.00,0.0063
2740.00,0.0063
2739.00,0.0063
2738.00,0.0063
2737.00,0.0062
2736.00,0.0062
2735.00,0.0062
2734.00,0.0062
2733.00,0.0062
2732.00,0.0062
2731.00,0.0061
2730.00,0.0061
2729.00,0.0061
2728.00,0.0061
2727.00,0.0062
2726.00,0.0061
2725.00,0.0061
2724.00,0.0061
2723.00,0.0061
2722.00,0.0061
2721.00,0.0061
2720.00,0.0061
2719.00,0.0061
2718.00,0.0061
2717.00,0.0060
2716.00,0.0060
2715.00,0.0060
2714.00,0.0060
2713.00,0.0060
2712.00,0.0060
2711.00,0.0060
2710.00,0.0060
2709.00,0.0060
2708.00,0.0060
2707.00,0.0060
2706.00,0.0059
2705.00,0.0059
2704.00,0.0060
2703.00,0.0060
2702.00,0.0060
2701.00,0.0059
2700.00,0.0059
2699.00,0.0059
2698.00,0.0058
2697.00,0.0058
2696.00,0.0058
2695.00,0.0058
2694.00,0.0058
2693.00,0.0058
2692.00,0.0058
2691.00,0.0058
2690.00,0.0058
2689.00,0.0058
2688.00,0.0058
2687.00,0.0058
2686.00,0.0058
2685.00,0.0058
2684.00,0.0058
2683.00,0.0058
2682.00,0.0058
2681.00,0.0058
2680.00,0.0058
2679.00,0.0058
2678.00,0.0058
2677.00,0.0058
2676.00,0.0058
2675.00,0.0058
2674.00,0.0057
2673.00,0.0057
2672.00,0.0057
2671.00,0.0057
2670.00,0.0056
2669.00,0.0056
2668.00,0.0056
2667.00,0.0056
2666.00,0.0056
2665.00,0.0056
2664.00,0.0056
2663.00,0.0056
2662.00,0.0057
2661.00,0.0057
2660.00,0.0057
2659.00,0.0057
2658.00,0.0057
2657.00,0.0057
2656.00,0.0056
2655.00,0.0056
2654.00,0.0056
2653.00,0.0056
2652.00,0.0056
2651.00,0.0056
2650.00,0.0056
2649.00,0.0057
2648.00,0.0057
2647.00,0.0057
2646.00,0.0057
2645.00,0.0057
2644.00,0.0057
2643.00,0.0057
2642.00,0.0057
2641.00,0.0058
2640.00,0.0057
2639.00,0.0057
2638.00,0.0056
2637.00,0.0056
2636.00,0.0056
2635.00,0.0057
2634.00,0.0057
2633.00,0.0057
2632.00,0.0056
2631.00,0.0056
2630.00,0.0056
2629.00,0.0056
2628.00,0.0056
2627.00,0.0056
2626.00,0.0056
2625.00,0.0056
2624.00,0.0056
2623.00,0.0056
2622.00,0.0056
2621.00,0.0056
2620.00,0.0055
2619.00,0.0055
2618.00,0.0055
2617.00,0.0056
2616.00,0.0056
2615.00,0.0056
2614.00,0.0056
2613.00,0.0056
2612.00,0.0056
2611.00,0.0055
2610.00,0.0055
2609.00,0.0055
2608.00,0.0055
2607.00,0.0055
2606.00,0.0055
2605.00,0.0055
2604.00,0.0055
2603.00,0.0055
2602.00,0.0055
2601.00,0.0055
2600.00,0.0055
2599.00,0.0055
2598.00,0.0055
2597.00,0.0055
2596.00,0.0055
2595.00,0.0055
2594.00,0.0055
2593.00,0.0055
2592.00,0.0055
2591.00,0.0055
2590.00,0.0055
2589.00,0.0055
2588.00,0.0054
2587.00,0.0054
2586.00,0.0053
2585.00,0.0054
2584.00,0.0054
2583.00,0.0055
2582.00,0.0055
2581.00,0.0054
2580.00,0.0053
2579.00,0.0053
2578.00,0.0052
2577.00,0.0053
2576.00,0.0053
2575.00,0.0054
2574.00,0.0054
2573.00,0.0053
2572.00,0.0053
2571.00,0.0053
2570.00,0.0053
2569.00,0.0053
2568.00,0.0053
2567.00,0.0053
2566.00,0.0054
2565.00,0.0055
2564.00,0.0055
2563.00,0.0054
2562.00,0.0054
2561.00,0.0053
2560.00,0.0053
2559.00,0.0052
2558.00,0.0053
2557.00,0.0053
2556.00,0.0053
2555.00,0.0054
2554.00,0.0054
2553.00,0.0054
2552.00,0.0054
2551.00,0.0053
2550.00,0.0053
2549.00,0.0053
2548.00,0.0052
2547.00,0.0052
2546.00,0.0052
2545.00,0.0052
2544.00,0.0052
2543.00,0.0053
2542.00,0.0053
2541.00,0.0054
2540.00,0.0054
2539.00,0.0054
2538.00,0.0054
2537.00,0.0054
2536.00,0.0054
2535.00,0.0054
2534.00,0.0054
2533.00,0.0054
2532.00,0.0053
2531.00,0.0053
2530.00,0.0053
2529.00,0.0053
2528.00,0.0053
2527.00,0.0054
2526.00,0.0054
2525.00,0.0054
2524.00,0.0054
2523.00,0.0054
2522.00,0.0054
2521.00,0.0054
2520.00,0.0053
2519.00,0.0053
2518.00,0.0052
2517.00,0.0052
2516.00,0.0052
2515.00,0.0051
2514.00,0.0052
2513.00,0.0052
2512.00,0.0052
2511.00,0.0053
2510.00,0.0053
2509.00,0.0052
2508.00,0.0052
2507.00,0.0051
2506.00,0.0051
2505.00,0.0050
2504.00,0.0050
2503.00,0.0051
2502.00,0.0051
2501.00,0.0052
2500.00,0.0051
2499.00,0.0051
2498.00,0.0050
2497.00,0.0050
2496.00,0.0050
2495.00,0.0050
2494.00,0.0050
2493.00,0.0051
2492.00,0.0051
2491.00,0.0051
2490.00,0.0051
2489.00,0.0051
2488.00,0.0051
2487.00,0.0050
2486.00,0.0049
2485.00,0.0049
2484.00,0.0049
2483.00,0.0049
2482.00,0.0050
2481.00,0.0050
2480.00,0.0051
2479.00,0.0051
2478.00,0.0051
2477.00,0.0050
2476.00,0.0050
2475.00,0.0049
2474.00,0.0049
2473.00,0.0050
2472.00,0.0050
2471.00,0.0050
2470.00,0.0050
2469.00,0.0050
2468.00,0.0049
2467.00,0.0048
2466.00,0.0048
2465.00,0.0048
2464.00,0.0048
2463.00,0.0048
2462.00,0.0048
2461.00,0.0048
2460.00,0.0048
2459.00,0.0049
2458.00,0.0049
2457.00,0.0050
2456.00,0.0049
2455.00,0.0048
2454.00,0.0048
2453.00,0.0048
2452.00,0.0048
2451.00,0.0048
2450.00,0.0049
2449.00,0.0048
2448.00,0.0048
2447.00,0.0047
2446.00,0.0047
2445.00,0.0047
2444.00,0.0047
2443.00,0.0047
2442.00,0.0047
2441.00,0.0047
2440.00,0.0047
2439.00,0.0046
2438.00,0.0046
2437.00,0.0046
2436.00,0.0046
2435.00,0.0046
2434.00,0.0046
2433.00,0.0046
2432.00,0.0046
2431.00,0.0046
2430.00,0.0047
2429.00,0.0047
2428.00,0.0047
2427.00,0.0047
2426.00,0.0047
2425.00,0.0047
2424.00,0.0046
2423.00,0.0046
2422.00,0.0046
2421.00,0.0046
2420.00,0.0046
2419.00,0.0045
2418.00,0.0045
2417.00,0.0045
2416.00,0.0045
2415.00,0.0045
2414.00,0.0045
2413.00,0.0046
2412.00,0.0046
2411.00,0.0045
2410.00,0.0045
2409.00,0.0044
2408.00,0.0044
2407.00,0.0044
2406.00,0.0044
2405.00,0.0044
2404.00,0.0044
2403.00,0.0044
2402.00,0.0044
2401.00,0.0043
2400.00,0.0043
2399.00,0.0043
2398.00,0.0043
2397.00,0.0043
2396.00,0.0043
2395.00,0.0043
2394.00,0.0043
2393.00,0.0043
2392.00,0.0044
2391.00,0.0043
2390.00,0.0043
2389.00,0.0043
2388.00,0.0043
2387.00,0.0043
2386.00,0.0043
2385.00,0.0044
2384.00,0.0044
2383.00,0.0043
2382.00,0.0043
2381.00,0.0042
2380.00,0.0041
2379.00,0.0039
2378.00,0.0037
2377.00,0.0035
2376.00,0.0034
2375.00,0.0035
2374.00,0.0035
2373.00,0.0036
2372.00,0.0037
2371.00,0.0037
2370.00,0.0037
2369.00,0.0038
2368.00,0.0039
2367.00,0.0040
2366.00,0.0042
2365.00,0.0042
2364.00,0.0042
2363.00,0.0041
2362.00,0.0041
2361.00,0.0042
2360.00,0.0043
2359.00,0.0043
2358.00,0.0042
2357.00,0.0042
2356.00,0.0042
2355.00,0.0044
2354.00,0.0045
2353.00,0.0046
2352.00,0.0046
2351.00,0.0044
2350.00,0.0043
2349.00,0.0042
2348.00,0.0041
2347.00,0.0041
2346.00,0.0041
2345.00,0.0042
2344.00,0.0042
2343.00,0.0041
2342.00,0.0040
2341.00,0.0040
2340.00,0.0039
2339.00,0.0039
2338.00,0.0039
2337.00,0.0040
2336.00,0.0040
2335.00,0.0041
2334.00,0.0040
2333.00,0.0040
2332.00,0.0040
2331.00,0.0039
2330.00,0.0038
2329.00,0.0039
2328.00,0.0040
2327.00,0.0042
2326.00,0.0043
2325.00,0.0044
2324.00,0.0043
2323.00,0.0042
2322.00,0.0041
2321.00,0.0040
2320.00,0.0039
2319.00,0.0038
2318.00,0.0038
2317.00,0.0039
2316.00,0.0039
2315.00,0.0040
2314.00,0.0040
2313.00,0.0039
2312.00,0.0037
2311.00,0.0036
2310.00,0.0034
2309.00,0.0033
2308.00,0.0033
2307.00,0.0034
2306.00,0.0034
2305.00,0.0035
2304.00,0.0035
2303.00,0.0035
2302.00,0.0036
2301.00,0.0036
2300.00,0.0036
2299.00,0.0036
2298.00,0.0036
2297.00,0.0036
2296.00,0.0036
2295.00,0.0036
2294.00,0.0036
2293.00,0.0036
2292.00,0.0036
2291.00,0.0036
2290.00,0.0037
2289.00,0.0037
2288.00,0.0037
2287.00,0.0037
2286.00,0.0037
2285.00,0.0037
2284.00,0.0037
2283.00,0.0037
2282.00,0.0037
2281.00,0.0037
2280.00,0.0038
2279.00,0.0039
2278.00,0.0039
2277.00,0.0038
2276.00,0.0038
2275.00,0.0038
2274.00,0.0038
2273.00,0.0039
2272.00,0.0039
2271.00,0.0038
2270.00,0.0037
2269.00,0.0036
2268.00,0.0036
2267.00,0.0036
2266.00,0.0036
2265.00,0.0036
2264.00,0.0035
2263.00,0.0035
2262.00,0.0035
2261.00,0.0035
2260.00,0.0035
2259.00,0.0036
2258.00,0.0037
2257.00,0.0037
2256.00,0.0037
2255.00,0.0036
2254.00,0.0035
2253.00,0.0034
2252.00,0.0034
2251.00,0.0035
2250.00,0.0035
2249.00,0.0035
2248.00,0.0035
2247.00,0.0034
2246.00,0.0034
2245.00,0.0034
2244.00,0.0034
2243.00,0.0034
2242.00,0.0034
2241.00,0.0034
2240.00,0.0034
2239.00,0.0033
2238.00,0.0032
2237.00,0.0032
2236.00,0.0032
2235.00,0.0032
2234.00,0.0032
2233.00,0.0033
2232.00,0.0034
2231.00,0.0035
2230.00,0.0036
2229.00,0.0036
2228.00,0.0036
2227.00,0.0036
2226.00,0.0037
2225.00,0.0036
2224.00,0.0036
2223.00,0.0036
2222.00,0.0036
2221.00,0.0036
2220.00,0.0036
2219.00,0.0036
2218.00,0.0036
2217.00,0.0036
2216.00,0.0036
2215.00,0.0036
2214.00,0.0036
2213.00,0.0035
2212.00,0.0034
2211.00,0.0033
2210.00,0.0031
2209.00,0.0031
2208.00,0.0032
2207.00,0.0033
2206.00,0.0035
2205.00,0.0036
2204.00,0.0037
2203.00,0.0036
2202.00,0.0035
2201.00,0.0035
2200.00,0.0035
2199.00,0.0035
2198.00,0.0035
2197.00,0.0035
2196.00,0.0036
2195.00,0.0037
2194.00,0.0037
2193.00,0.0036
2192.00,0.0035
2191.00,0.0035
2190.00,0.0035
2189.00,0.0035
2188.00,0.0035
2187.00,0.0035
2186.00,0.0034
2185.00,0.0034
2184.00,0.0034
2183.00,0.0034
2182.00,0.0035
2181.00,0.0036
2180.00,0.0037
2179.00,0.0038
2178.00,0.0036
2177.00,0.0034
2176.00,0.0031
2175.00,0.0030
2174.00,0.0031
2173.00,0.0033
2172.00,0.0034
2171.00,0.0034
2170.00,0.0033
2169.00,0.0031
2168.00,0.0031
2167.00,0.0032
2166.00,0.0033
2165.00,0.0034
2164.00,0.0036
2163.00,0.0037
2162.00,0.0036
2161.00,0.0032
2160.00,0.0029
2159.00,0.0027
2158.00,0.0027
2157.00,0.0027
2156.00,0.0028
2155.00,0.0028
2154.00,0.0027
2153.00,0.0027
2152.00,0.0027
2151.00,0.0028
2150.00,0.0028
2149.00,0.0028
2148.00,0.0028
2147.00,0.0027
2146.00,0.0027
2145.00,0.0027
2144.00,0.0026
2143.00,0.0027
2142.00,0.0027
2141.00,0.0027
2140.00,0.0027
2139.00,0.0026
2138.00,0.0025
2137.00,0.0024
2136.00,0.0024
2135.00,0.0024
2134.00,0.0024
2133.00,0.0025
2132.00,0.0026
2131.00,0.0027
2130.00,0.0027
2129.00,0.0027
2128.00,0.0026
2127.00,0.0025
2126.00,0.0025
2125.00,0.0026
2124.00,0.0026
2123.00,0.0027
2122.00,0.0028
2121.00,0.0029
2120.00,0.0029
2119.00,0.0030
2118.00,0.0030
2117.00,0.0030
2116.00,0.0031
2115.00,0.0031
2114.00,0.0030
2113.00,0.0029
2112.00,0.0028
2111.00,0.0027
2110.00,0.0027
2109.00,0.0027
2108.00,0.0027
2107.00,0.0027
2106.00,0.0027
2105.00,0.0027
2104.00,0.0027
2103.00,0.0026
2102.00,0.0026
2101.00,0.0026
2100.00,0.0026
2099.00,0.0026
2098.00,0.0027
2097.00,0.0027
2096.00,0.0026
2095.00,0.0026
2094.00,0.0026
2093.00,0.0026
2092.00,0.0027
2091.00,0.0027
2090.00,0.0028
2089.00,0.0028
2088.00,0.0028
2087.00,0.0028
2086.00,0.0028
2085.00,0.0028
2084.00,0.0027
2083.00,0.0026
2082.00,0.0025
2081.00,0.0024
2080.00,0.0023
2079.00,0.0023
2078.00,0.0024
2077.00,0.0025
2076.00,0.0026
2075.00,0.0026
2074.00,0.0026
2073.00,0.0026
2072.00,0.0026
2071.00,0.0025
2070.00,0.0025
2069.00,0.0025
2068.00,0.0026
2067.00,0.0027
2066.00,0.0028
2065.00,0.0029
2064.00,0.0028
2063.00,0.0027
2062.00,0.0026
2061.00,0.0026
2060.00,0.0026
2059.00,0.0026
2058.00,0.0027
2057.00,0.0027
2056.00,0.0027
2055.00,0.0028
2054.00,0.0027
2053.00,0.0027
2052.00,0.0026
2051.00,0.0026
2050.00,0.0026
2049.00,0.0027
2048.00,0.0028
2047.00,0.0028
2046.00,0.0028
2045.00,0.0028
2044.00,0.0028
2043.00,0.0028
2042.00,0.0028
2041.00,0.0029
2040.00,0.0029
2039.00,0.0029
2038.00,0.0029
2037.00,0.0029
2036.00,0.0029
2035.00,0.0029
2034.00,0.0028
2033.00,0.0026
2032.00,0.0025
2031.00,0.0024
2030.00,0.0023
2029.00,0.0024
2028.00,0.0024
2027.00,0.0024
2026.00,0.0024
2025.00,0.0024
2024.00,0.0025
2023.00,0.0027
2022.00,0.0028
2021.00,0.0029
2020.00,0.0030
2019.00,0.0029
2018.00,0.0027
2017.00,0.0026
2016.00,0.0026
2015.00,0.0026
2014.00,0.0027
2013.00,0.0027
2012.00,0.0026
2011.00,0.0024
2010.00,0.0024
2009.00,0.0023
2008.00,0.0023
2007.00,0.0022
2006.00,0.0021
2005.00,0.0021
2004.00,0.0022
2003.00,0.0023
2002.00,0.0024
2001.00,0.0026
2000.00,0.0027
1999.00,0.0027
1998.00,0.0026
1997.00,0.0026
1996.00,0.0026
1995.00,0.0027
1994.00,0.0027
1993.00,0.0027
1992.00,0.0027
1991.00,0.0027
1990.00,0.0026
1989.00,0.0026
1988.00,0.0025
1987.00,0.0024
1986.00,0.0024
1985.00,0.0024
1984.00,0.0025
1983.00,0.0026
1982.00,0.0027
1981.00,0.0027
1980.00,0.0026
1979.00,0.0025
1978.00,0.0025
1977.00,0.0026
1976.00,0.0028
1975.00,0.0028
1974.00,0.0027
1973.00,0.0027
1972.00,0.0026
1971.00,0.0026
1970.00,0.0027
1969.00,0.0028
1968.00,0.0028
1967.00,0.0027
1966.00,0.0025
1965.00,0.0024
1964.00,0.0023
1963.00,0.0025
1962.00,0.0026
1961.00,0.0027
1960.00,0.0027
1959.00,0.0026
1958.00,0.0024
1957.00,0.0022
1956.00,0.0019
1955.00,0.0018
1954.00,0.0018
1953.00,0.0020
1952.00,0.0021
1951.00,0.0021
1950.00,0.0021
1949.00,0.0019
1948.00,0.0019
1947.00,0.0019
1946.00,0.0021
1945.00,0.0022
1944.00,0.0023
1943.00,0.0022
1942.00,0.0022
1941.00,0.0022
1940.00,0.0021
1939.00,0.0021
1938.00,0.0020
1937.00,0.0019
1936.00,0.0019
1935.00,0.0019
1934.00,0.0020
1933.00,0.0020
1932.00,0.0020
1931.00,0.0020
1930.00,0.0020
1929.00,0.0020
1928.00,0.0019
1927.00,0.0019
1926.00,0.0020
1925.00,0.0022
1924.00,0.0023
1923.00,0.0023
1922.00,0.0021
1921.00,0.0021
1920.00,0.0020
1919.00,0.0020
1918.00,0.0019
1917.00,0.0018
1916.00,0.0017
1915.00,0.0017
1914.00,0.0017
1913.00,0.0017
1912.00,0.0018
1911.00,0.0019
1910.00,0.0019
1909.00,0.0019
1908.00,0.0018
1907.00,0.0017
1906.00,0.0017
1905.00,0.0017
1904.00,0.0017
1903.00,0.0016
1902.00,0.0016
1901.00,0.0016
1900.00,0.0015
1899.00,0.0015
1898.00,0.0015
1897.00,0.0016
1896.00,0.0017
1895.00,0.0017
1894.00,0.0017
1893.00,0.0017
1892.00,0.0017
1891.00,0.0017
1890.00,0.0016
1889.00,0.0015
1888.00,0.0015
1887.00,0.0015
1886.00,0.0015
1885.00,0.0015
1884.00,0.0015
1883.00,0.0014
1882.00,0.0014
1881.00,0.0014
1880.00,0.0014
1879.00,0.0014
1878.00,0.0013
1877.00,0.0013
1876.00,0.0013
1875.00,0.0013
1874.00,0.0013
1873.00,0.0014
1872.00,0.0015
1871.00,0.0015
1870.00,0.0014
1869.00,0.0012
1868.00,0.0011
1867.00,0.0011
1866.00,0.0012
1865.00,0.0012
1864.00,0.0013
1863.00,0.0012
1862.00,0.0012
1861.00,0.0011
1860.00,0.0011
1859.00,0.0011
1858.00,0.0011
1857.00,0.0012
1856.00,0.0012
1855.00,0.0013
1854.00,0.0012
1853.00,0.0012
1852.00,0.0011
1851.00,0.0010
1850.00,0.0010
1849.00,0.0010
1848.00,0.0011
1847.00,0.0011
1846.00,0.0011
1845.00,0.0010
1844.00,0.0007
1843.00,0.0006
1842.00,0.0007
1841.00,0.0009
1840.00,0.0010
1839.00,0.0010
1838.00,0.0010
1837.00,0.0009
1836.00,0.0009
1835.00,0.0009
1834.00,0.0009
1833.00,0.0010
1832.00,0.0011
1831.00,0.0010
1830.00,0.0009
1829.00,0.0008
1828.00,0.0008
1827.00,0.0009
1826.00,0.0009
1825.00,0.0009
1824.00,0.0008
1823.00,0.0008
1822.00,0.0008
1821.00,0.0008
1820.00,0.0008
1819.00,0.0008
1818.00,0.0008
1817.00,0.0008
1816.00,0.0008
1815.00,0.0008
1814.00,0.0008
1813.00,0.0008
1812.00,0.0008
1811.00,0.0008
1810.00,0.0008
1809.00,0.0008
1808.00,0.0008
1807.00,0.0009
1806.00,0.0009
1805.00,0.0010
1804.00,0.0011
1803.00,0.0011
1802.00,0.0010
1801.00,0.0010
1800.00,0.0010
1799.00,0.0010
1798.00,0.0010
1797.00,0.0011
1796.00,0.0013
1795.00,0.0014
1794.00,0.0013
1793.00,0.0012
1792.00,0.0012
1791.00,0.0012
1790.00,0.0013
1789.00,0.0014
1788.00,0.0016
1787.00,0.0016
1786.00,0.0016
1785.00,0.0016
1784.00,0.0017
1783.00,0.0019
1782.00,0.0020
1781.00,0.0021
1780.00,0.0021
1779.00,0.0021
1778.00,0.0022
1777.00,0.0023
1776.00,0.0025
1775.00,0.0026
1774.00,0.0027
1773.00,0.0026
1772.00,0.0025
1771.00,0.0025
1770.00,0.0026
1769.00,0.0027
1768.00,0.0028
1767.00,0.0029
1766.00,0.0030
1765.00,0.0032
1764.00,0.0034
1763.00,0.0035
1762.00,0.0035
1761.00,0.0034
1760.00,0.0035
1759.00,0.0036
1758.00,0.0037
1757.00,0.0037
1756.00,0.0036
1755.00,0.0037
1754.00,0.0038
1753.00,0.0038
1752.00,0.0038
1751.00,0.0039
1750.00,0.0040
1749.00,0.0041
1748.00,0.0043
1747.00,0.0045
1746.00,0.0047
1745.00,0.0048
1744.00,0.0050
1743.00,0.0051
1742.00,0.0052
1741.00,0.0053
1740.00,0.0053
1739.00,0.0053
1738.00,0.0054
1737.00,0.0057
1736.00,0.0059
1735.00,0.0059
1734.00,0.0059
1733.00,0.0061
1732.00,0.0064
1731.00,0.0068
1730.00,0.0071
1729.00,0.0073
1728.00,0.0075
1727.00,0.0076
1726.00,0.0078
1725.00,0.0079
1724.00,0.0080
1723.00,0.0082
1722.00,0.0083
1721.00,0.0085
1720.00,0.0087
1719.00,0.0087
1718.00,0.0085
1717.00,0.0086
1716.00,0.0088
1715.00,0.0091
1714.00,0.0093
1713.00,0.0094
1712.00,0.0095
1711.00,0.0096
1710.00,0.0096
1709.00,0.0097
1708.00,0.0098
1707.00,0.0099
1706.00,0.0100
1705.00,0.0101
1704.00,0.0102
1703.00,0.0103
1702.00,0.0105
1701.00,0.0104
1700.00,0.0101
1699.00,0.0099
1698.00,0.0101
1697.00,0.0105
1696.00,0.0106
1695.00,0.0105
1694.00,0.0104
1693.00,0.0106
1692.00,0.0108
1691.00,0.0108
1690.00,0.0108
1689.00,0.0108
1688.00,0.0109
1687.00,0.0110
1686.00,0.0111
1685.00,0.0111
1684.00,0.0112
1683.00,0.0113
1682.00,0.0115
1681.00,0.0116
1680.00,0.0117
1679.00,0.0117
1678.00,0.0118
1677.00,0.0118
1676.00,0.0118
1675.00,0.0119
1674.00,0.0120
1673.00,0.0122
1672.00,0.0124
1671.00,0.0125
1670.00,0.0126
1669.00,0.0128
1668.00,0.0129
1667.00,0.0130
1666.00,0.0131
1665.00,0.0132
1664.00,0.0133
1663.00,0.0134
1662.00,0.0135
1661.00,0.0136
1660.00,0.0137
1659.00,0.0138
1658.00,0.0138
1657.00,0.0138
1656.00,0.0140
1655.00,0.0142
1654.00,0.0144
1653.00,0.0148
1652.00,0.0147
1651.00,0.0146
1650.00,0.0147
1649.00,0.0149
1648.00,0.0151
1647.00,0.0153
1646.00,0.0156
1645.00,0.0158
1644.00,0.0159
1643.00,0.0160
1642.00,0.0161
1641.00,0.0162
1640.00,0.0162
1639.00,0.0162
1638.00,0.0163
1637.00,0.0165
1636.00,0.0169
1635.00,0.0172
1634.00,0.0173
1633.00,0.0174
1632.00,0.0175
1631.00,0.0176
1630.00,0.0178
1629.00,0.0179
1628.00,0.0181
1627.00,0.0182
1626.00,0.0184
1625.00,0.0185
1624.00,0.0187
1623.00,0.0188
1622.00,0.0189
1621.00,0.0189
1620.00,0.0189
1619.00,0.0189
1618.00,0.0190
1617.00,0.0191
1616.00,0.0194
1615.00,0.0196
1614.00,0.0197
1613.00,0.0198
1612.00,0.0198
1611.00,0.0199
1610.00,0.0200
1609.00,0.0201
1608.00,0.0203
1607.00,0.0204
1606.00,0.0205
1605.00,0.0206
1604.00,0.0207
1603.00,0.0208
1602.00,0.0209
1601.00,0.0209
1600.00,0.0210
1599.00,0.0210
1598.00,0.0210
1597.00,0.0211
1596.00,0.0211
1595.00,0.0212
1594.00,0.0213
1593.00,0.0213
1592.00,0.0213
1591.00,0.0213
1590.00,0.0214
1589.00,0.0214
1588.00,0.0215
1587.00,0.0215
1586.00,0.0215
1585.00,0.0214
1584.00,0.0214
1583.00,0.0214
1582.00,0.0214
1581.00,0.0214
1580.00,0.0214
1579.00,0.0214
1578.00,0.0214
1577.00,0.0214
1576.00,0.0214
1575.00,0.0214
1574.00,0.0214
1573.00,0.0213
1572.00,0.0213
1571.00,0.0212
1570.00,0.0212
1569.00,0.0212
1568.00,0.0212
1567.00,0.0212
1566.00,0.0212
1565.00,0.0211
1564.00,0.0210
1563.00,0.0209
1562.00,0.0208
1561.00,0.0207
1560.00,0.0205
1559.00,0.0208
1558.00,0.0209
1557.00,0.0206
1556.00,0.0202
1555.00,0.0201
1554.00,0.0200
1553.00,0.0199
1552.00,0.0198
1551.00,0.0198
1550.00,0.0198
1549.00,0.0196
1548.00,0.0194
1547.00,0.0191
1546.00,0.0189
1545.00,0.0187
1544.00,0.0186
1543.00,0.0184
1542.00,0.0180
1541.00,0.0177
1540.00,0.0179
1539.00,0.0181
1538.00,0.0180
1537.00,0.0178
1536.00,0.0178
1535.00,0.0178
1534.00,0.0178
1533.00,0.0179
1532.00,0.0178
1531.00,0.0176
1530.00,0.0174
1529.00,0.0172
1528.00,0.0170
1527.00,0.0168
1526.00,0.0166
1525.00,0.0165
1524.00,0.0164
1523.00,0.0163
1522.00,0.0162
1521.00,0.0163
1520.00,0.0163
1519.00,0.0163
1518.00,0.0163
1517.00,0.0163
1516.00,0.0162
1515.00,0.0159
1514.00,0.0157
1513.00,0.0156
1512.00,0.0155
1511.00,0.0155
1510.00,0.0156
1509.00,0.0157
1508.00,0.0157
1507.00,0.0157
1506.00,0.0155
1505.00,0.0150
1504.00,0.0148
1503.00,0.0147
1502.00,0.0147
1501.00,0.0146
1500.00,0.0145
1499.00,0.0144
1498.00,0.0143
1497.00,0.0143
1496.00,0.0144
1495.00,0.0145
1494.00,0.0145
1493.00,0.0146
1492.00,0.0147
1491.00,0.0147
1490.00,0.0148
1489.00,0.0150
1488.00,0.0151
1487.00,0.0151
1486.00,0.0150
1485.00,0.0149
1484.00,0.0148
1483.00,0.0148
1482.00,0.0147
1481.00,0.0147
1480.00,0.0148
1479.00,0.0148
1478.00,0.0148
1477.00,0.0148
1476.00,0.0148
1475.00,0.0148
1474.00,0.0147
1473.00,0.0147
1472.00,0.0149
1471.00,0.0150
1470.00,0.0150
1469.00,0.0151
1468.00,0.0151
1467.00,0.0152
1466.00,0.0152
1465.00,0.0153
1464.00,0.0153
1463.00,0.0153
1462.00,0.0153
1461.00,0.0153
1460.00,0.0153
1459.00,0.0153
1458.00,0.0152
1457.00,0.0153
1456.00,0.0155
1455.00,0.0156
1454.00,0.0157
1453.00,0.0159
1452.00,0.0160
1451.00,0.0160
1450.00,0.0161
1449.00,0.0162
1448.00,0.0163
1447.00,0.0164
1446.00,0.0164
1445.00,0.0164
1444.00,0.0165
1443.00,0.0165
1442.00,0.0165
1441.00,0.0165
1440.00,0.0166
1439.00,0.0166
1438.00,0.0166
1437.00,0.0167
1436.00,0.0168
1435.00,0.0169
1434.00,0.0169
1433.00,0.0170
1432.00,0.0170
1431.00,0.0171
1430.00,0.0172
1429.00,0.0172
1428.00,0.0172
1427.00,0.0172
1426.00,0.0172
1425.00,0.0172
1424.00,0.0172
1423.00,0.0173
1422.00,0.0173
1421.00,0.0172
1420.00,0.0173
1419.00,0.0175
1418.00,0.0177
1417.00,0.0177
1416.00,0.0177
1415.00,0.0177
1414.00,0.0177
1413.00,0.0177
1412.00,0.0177
1411.00,0.0178
1410.00,0.0178
1409.00,0.0178
1408.00,0.0178
1407.00,0.0178
1406.00,0.0178
1405.00,0.0179
1404.00,0.0180
1403.00,0.0180
1402.00,0.0180
1401.00,0.0180
1400.00,0.0180
1399.00,0.0181
1398.00,0.0182
1397.00,0.0183
1396.00,0.0183
1395.00,0.0184
1394.00,0.0184
1393.00,0.0183
1392.00,0.0183
1391.00,0.0182
1390.00,0.0182
1389.00,0.0183
1388.00,0.0183
1387.00,0.0184
1386.00,0.0185
1385.00,0.0185
1384.00,0.0185
1383.00,0.0185
1382.00,0.0185
1381.00,0.0185
1380.00,0.0185
1379.00,0.0185
1378.00,0.0184
1377.00,0.0185
1376.00,0.0185
1375.00,0.0187
1374.00,0.0188
1373.00,0.0188
1372.00,0.0187
1371.00,0.0186
1370.00,0.0186
1369.00,0.0187
1368.00,0.0186
1367.00,0.0186
1366.00,0.0185
1365.00,0.0185
1364.00,0.0186
1363.00,0.0187
1362.00,0.0187
1361.00,0.0187
1360.00,0.0186
1359.00,0.0185
1358.00,0.0184
1357.00,0.0183
1356.00,0.0182
1355.00,0.0182
1354.00,0.0182
1353.00,0.0181
1352.00,0.0180
1351.00,0.0180
1350.00,0.0179
1349.00,0.0179
1348.00,0.0178
1347.00,0.0178
1346.00,0.0178
1345.00,0.0177
1344.00,0.0176
1343.00,0.0176
1342.00,0.0175
1341.00,0.0175
1340.00,0.0176
1339.00,0.0176
1338.00,0.0176
1337.00,0.0175
1336.00,0.0174
1335.00,0.0173
1334.00,0.0172
1333.00,0.0171
1332.00,0.0171
1331.00,0.0171
1330.00,0.0170
1329.00,0.0170
1328.00,0.0170
1327.00,0.0169
1326.00,0.0169
1325.00,0.0168
1324.00,0.0168
1323.00,0.0168
1322.00,0.0167
1321.00,0.0167
1320.00,0.0167
1319.00,0.0166
1318.00,0.0167
1317.00,0.0167
1316.00,0.0167
1315.00,0.0167
1314.00,0.0167
1313.00,0.0166
1312.00,0.0165
1311.00,0.0165
1310.00,0.0164
1309.00,0.0164
1308.00,0.0164
1307.00,0.0164
1306.00,0.0164
1305.00,0.0164
1304.00,0.0165
1303.00,0.0164
1302.00,0.0164
1301.00,0.0164
1300.00,0.0164
1299.00,0.0164
1298.00,0.0164
1297.00,0.0164
1296.00,0.0164
1295.00,0.0163
1294.00,0.0163
1293.00,0.0163
1292.00,0.0163
1291.00,0.0163
1290.00,0.0164
1289.00,0.0165
1288.00,0.0166
1287.00,0.0166
1286.00,0.0166
1285.00,0.0166
1284.00,0.0165
1283.00,0.0165
1282.00,0.0165
1281.00,0.0165
1280.00,0.0166
1279.00,0.0166
1278.00,0.0166
1277.00,0.0166
1276.00,0.0167
1275.00,0.0167
1274.00,0.0167
1273.00,0.0167
1272.00,0.0166
1271.00,0.0166
1270.00,0.0166
1269.00,0.0166
1268.00,0.0166
1267.00,0.0167
1266.00,0.0167
1265.00,0.0166
1264.00,0.0165
1263.00,0.0165
1262.00,0.0165
1261.00,0.0166
1260.00,0.0167
1259.00,0.0169
1258.00,0.0170
1257.00,0.0170
1256.00,0.0171
1255.00,0.0173
1254.00,0.0174
1253.00,0.0175
1252.00,0.0177
1251.00,0.0178
1250.00,0.0179
1249.00,0.0180
1248.00,0.0180
1247.00,0.0181
1246.00,0.0182
1245.00,0.0182
1244.00,0.0183
1243.00,0.0184
1242.00,0.0185
1241.00,0.0185
1240.00,0.0186
1239.00,0.0187
1238.00,0.0188
1237.00,0.0189
1236.00,0.0190
1235.00,0.0190
1234.00,0.0191
1233.00,0.0191
1232.00,0.0191
1231.00,0.0192
1230.00,0.0193
1229.00,0.0194
1228.00,0.0194
1227.00,0.0194
1226.00,0.0195
1225.00,0.0196
1224.00,0.0196
1223.00,0.0197
1222.00,0.0197
1221.00,0.0197
1220.00,0.0197
1219.00,0.0197
1218.00,0.0198
1217.00,0.0198
1216.00,0.0199
1215.00,0.0199
1214.00,0.0199
1213.00,0.0200
1212.00,0.0200
1211.00,0.0201
1210.00,0.0202
1209.00,0.0203
1208.00,0.0203
1207.00,0.0203
1206.00,0.0203
1205.00,0.0203
1204.00,0.0203
1203.00,0.0204
1202.00,0.0204
1201.00,0.0205
1200.00,0.0205
1199.00,0.0206
1198.00,0.0206
1197.00,0.0206
1196.00,0.0206
1195.00,0.0206
1194.00,0.0208
1193.00,0.0209
1192.00,0.0210
1191.00,0.0210
1190.00,0.0211
1189.00,0.0211
1188.00,0.0211
1187.00,0.0211
1186.00,0.0212
1185.00,0.0212
1184.00,0.0213
1183.00,0.0213
1182.00,0.0214
1181.00,0.0214
1180.00,0.0215
1179.00,0.0216
1178.00,0.0217
1177.00,0.0218
1176.00,0.0218
1175.00,0.0219
1174.00,0.0219
1173.00,0.0220
1172.00,0.0220
1171.00,0.0220
1170.00,0.0221
1169.00,0.0222
1168.00,0.0224
1167.00,0.0226
1166.00,0.0227
1165.00,0.0227
1164.00,0.0227
1163.00,0.0226
1162.00,0.0226
1161.00,0.0226
1160.00,0.0226
1159.00,0.0227
1158.00,0.0227
1157.00,0.0226
1156.00,0.0226
1155.00,0.0226
1154.00,0.0227
1153.00,0.0228
1152.00,0.0228
1151.00,0.0229
1150.00,0.0231
1149.00,0.0232
1148.00,0.0234
1147.00,0.0235
1146.00,0.0236
1145.00,0.0237
1144.00,0.0238
1143.00,0.0238
1142.00,0.0239
1141.00,0.0239
1140.00,0.0240
1139.00,0.0242
1138.00,0.0243
1137.00,0.0245
1136.00,0.0246
1135.00,0.0248
1134.00,0.0250
1133.00,0.0252
1132.00,0.0255
1131.00,0.0257
1130.00,0.0259
1129.00,0.0260
1128.00,0.0263
1127.00,0.0266
1126.00,0.0270
1125.00,0.0274
1124.00,0.0278
1123.00,0.0281
1122.00,0.0284
1121.00,0.0288
1120.00,0.0293
1119.00,0.0297
1118.00,0.0301
1117.00,0.0305
1116.00,0.0308
1115.00,0.0311
1114.00,0.0312
1113.00,0.0314
1112.00,0.0315
1111.00,0.0316
1110.00,0.0318
1109.00,0.0321
1108.00,0.0324
1107.00,0.0327
1106.00,0.0331
1105.00,0.0335
1104.00,0.0339
1103.00,0.0343
1102.00,0.0345
1101.00,0.0346
1100.00,0.0347
1099.00,0.0348
1098.00,0.0349
1097.00,0.0351
1096.00,0.0352
1095.00,0.0354
1094.00,0.0357
1093.00,0.0360
1092.00,0.0362
1091.00,0.0363
1090.00,0.0363
1089.00,0.0362
1088.00,0.0363
1087.00,0.0364
1086.00,0.0366
1085.00,0.0367
1084.00,0.0368
1083.00,0.0369
1082.00,0.0369
1081.00,0.0369
1080.00,0.0368
1079.00,0.0368
1078.00,0.0369
1077.00,0.0370
1076.00,0.0372
1075.00,0.0373
1074.00,0.0374
1073.00,0.0375
1072.00,0.0375
1071.00,0.0375
1070.00,0.0376
1069.00,0.0378
1068.00,0.0379
1067.00,0.0381
1066.00,0.0382
1065.00,0.0384
1064.00,0.0384
1063.00,0.0384
1062.00,0.0383
1061.00,0.0383
1060.00,0.0385
1059.00,0.0387
1058.00,0.0390
1057.00,0.0392
1056.00,0.0394
1055.00,0.0396
1054.00,0.0396
1053.00,0.0397
1052.00,0.0400
1051.00,0.0403
1050.00,0.0406
1049.00,0.0409
1048.00,0.0411
1047.00,0.0414
1046.00,0.0417
1045.00,0.0420
1044.00,0.0422
1043.00,0.0424
1042.00,0.0426
1041.00,0.0429
1040.00,0.0432
1039.00,0.0435
1038.00,0.0439
1037.00,0.0443
1036.00,0.0447
1035.00,0.0450
1034.00,0.0451
1033.00,0.0451
1032.00,0.0450
1031.00,0.0448
1030.00,0.0445
1029.00,0.0442
1028.00,0.0438
1027.00,0.0435
1026.00,0.0431
1025.00,0.0428
1024.00,0.0425
1023.00,0.0422
1022.00,0.0419
1021.00,0.0416
1020.00,0.0414
1019.00,0.0414
1018.00,0.0414
1017.00,0.0416
1016.00,0.0417
1015.00,0.0419
1014.00,0.0421
1013.00,0.0423
1012.00,0.0425
1011.00,0.0427
1010.00,0.0429
1009.00,0.0432
1008.00,0.0434
1007.00,0.0435
1006.00,0.0436
1005.00,0.0435
1004.00,0.0434
1003.00,0.0432
1002.00,0.0429
1001.00,0.0426
1000.00,0.0423
999.00,0.0419
998.00,0.0414
997.00,0.0409
996.00,0.0403
995.00,0.0397
994.00,0.0392
993.00,0.0387
992.00,0.0383
991.00,0.0380
990.00,0.0375
989.00,0.0371
988.00,0.0368
987.00,0.0366
986.00,0.0363
985.00,0.0361
984.00,0.0358
983.00,0.0355
982.00,0.0351
981.00,0.0348
980.00,0.0346
979.00,0.0344
978.00,0.0341
977.00,0.0338
976.00,0.0335
975.00,0.0332
974.00,0.0330
973.00,0.0328
972.00,0.0326
971.00,0.0325
970.00,0.0324
969.00,0.0323
968.00,0.0322
967.00,0.0320
966.00,0.0319
965.00,0.0317
964.00,0.0315
963.00,0.0314
962.00,0.0312
961.00,0.0311
960.00,0.0311
959.00,0.0310
958.00,0.0308
957.00,0.0306
956.00,0.0305
955.00,0.0305
954.00,0.0305
953.00,0.0305
952.00,0.0305
951.00,0.0305
950.00,0.0305
949.00,0.0305
948.00,0.0306
947.00,0.0307
946.00,0.0308
945.00,0.0309
944.00,0.0310
943.00,0.0310
942.00,0.0311
941.00,0.0312
940.00,0.0314
939.00,0.0314
938.00,0.0314
937.00,0.0314
936.00,0.0314
935.00,0.0313
934.00,0.0313
933.00,0.0311
932.00,0.0309
931.00,0.0308
930.00,0.0308
929.00,0.0308
928.00,0.0309
927.00,0.0309
926.00,0.0309
925.00,0.0310
924.00,0.0312
923.00,0.0315
922.00,0.0317
921.00,0.0320
920.00,0.0322
919.00,0.0324
918.00,0.0326
917.00,0.0327
916.00,0.0329
915.00,0.0331
914.00,0.0334
913.00,0.0336
912.00,0.0337
911.00,0.0337
910.00,0.0335
909.00,0.0331
908.00,0.0326
907.00,0.0322
906.00,0.0318
905.00,0.0316
904.00,0.0313
903.00,0.0311
902.00,0.0308
901.00,0.0306
900.00,0.0304
899.00,0.0302
898.00,0.0299
897.00,0.0296
896.00,0.0293
895.00,0.0291
894.00,0.0290
893.00,0.0289
892.00,0.0288
891.00,0.0287
890.00,0.0285
889.00,0.0283
888.00,0.0280
887.00,0.0277
886.00,0.0276
885.00,0.0275
884.00,0.0276
883.00,0.0276
882.00,0.0275
881.00,0.0275
880.00,0.0275
879.00,0.0273
878.00,0.0270
877.00,0.0268
876.00,0.0266
875.00,0.0266
874.00,0.0266
873.00,0.0265
872.00,0.0264
871.00,0.0262
870.00,0.0260
869.00,0.0258
868.00,0.0258
867.00,0.0257
866.00,0.0256
865.00,0.0255
864.00,0.0255
863.00,0.0257
862.00,0.0257
861.00,0.0256
860.00,0.0254
859.00,0.0252
858.00,0.0251
857.00,0.0251
856.00,0.0252
855.00,0.0254
854.00,0.0256
853.00,0.0256
852.00,0.0254
851.00,0.0252
850.00,0.0251
849.00,0.0250
848.00,0.0251
847.00,0.0252
846.00,0.0255
845.00,0.0258
844.00,0.0259
843.00,0.0259
842.00,0.0257
841.00,0.0256
840.00,0.0256
839.00,0.0257
838.00,0.0260
837.00,0.0262
836.00,0.0265
835.00,0.0266
834.00,0.0265
833.00,0.0265
832.00,0.0265
831.00,0.0266
830.00,0.0268
829.00,0.0268
828.00,0.0268
827.00,0.0267
826.00,0.0266
825.00,0.0265
824.00,0.0264
823.00,0.0264
822.00,0.0265
821.00,0.0268
820.00,0.0271
819.00,0.0273
818.00,0.0274
817.00,0.0272
816.00,0.0271
815.00,0.0271
814.00,0.0272
813.00,0.0273
812.00,0.0275
811.00,0.0277
810.00,0.0281
809.00,0.0285
808.00,0.0288
807.00,0.0290
806.00,0.0292
805.00,0.0294
804.00,0.0296
803.00,0.0298
802.00,0.0301
801.00,0.0305
800.00,0.0307
799.00,0.0309
798.00,0.0311
797.00,0.0313
796.00,0.0316
795.00,0.0317
794.00,0.0316
793.00,0.0314
792.00,0.0313
791.00,0.0313
790.00,0.0315
789.00,0.0318
788.00,0.0321
787.00,0.0322
786.00,0.0322
785.00,0.0321
784.00,0.0319
783.00,0.0317
782.00,0.0316
781.00,0.0318
780.00,0.0321
779.00,0.0324
778.00,0.0325
777.00,0.0325
776.00,0.0323
775.00,0.0320
774.00,0.0317
773.00,0.0314
772.00,0.0312
771.00,0.0311
770.00,0.0311
769.00,0.0312
768.00,0.0313
767.00,0.0313
766.00,0.0312
765.00,0.0310
764.00,0.0308
763.00,0.0307
762.00,0.0305
761.00,0.0306
760.00,0.0310
759.00,0.0316
758.00,0.0321
757.00,0.0324
756.00,0.0324
755.00,0.0321
754.00,0.0317
753.00,0.0315
752.00,0.0316
751.00,0.0320
750.00,0.0323
749.00,0.0325
748.00,0.0325
747.00,0.0323
746.00,0.0319
745.00,0.0316
744.00,0.0314
743.00,0.0313
742.00,0.0312
741.00,0.0311
740.00,0.0312
739.00,0.0312
738.00,0.0312
737.00,0.0310
736.00,0.0308
735.00,0.0305
734.00,0.0303
733.00,0.0302
732.00,0.0303
731.00,0.0305
730.00,0.0307
729.00,0.0307
728.00,0.0307
727.00,0.0306
726.00,0.0304
725.00,0.0303
724.00,0.0302
723.00,0.0302
722.00,0.0304
721.00,0.0306
720.00,0.0308
719.00,0.0308
718.00,0.0306
717.00,0.0303
716.00,0.0302
715.00,0.0302
714.00,0.0305
713.00,0.0310
712.00,0.0315
711.00,0.0318
710.00,0.0319
709.00,0.0318
708.00,0.0317
707.00,0.0317
706.00,0.0319
705.00,0.0325
704.00,0.0332
703.00,0.0339
702.00,0.0342
701.00,0.0344
700.00,0.0344
699.00,0.0344
698.00,0.0344
697.00,0.0345
696.00,0.0347
695.00,0.0350
694.00,0.0353
693.00,0.0356
692.00,0.0360
691.00,0.0361
690.00,0.0360
689.00,0.0357
688.00,0.0354
687.00,0.0352
686.00,0.0352
685.00,0.0353
684.00,0.0355
683.00,0.0358
682.00,0.0359
681.00,0.0359
680.00,0.0356
679.00,0.0352
678.00,0.0350
677.00,0.0352
676.00,0.0359
675.00,0.0365
674.00,0.0369
673.00,0.0369
672.00,0.0366
671.00,0.0360
670.00,0.0351
669.00,0.0344
668.00,0.0347
667.00,0.0358
666.00,0.0368
665.00,0.0371
664.00,0.0371
663.00,0.0368
662.00,0.0364
661.00,0.0361
660.00,0.0360
659.00,0.0362
658.00,0.0367
657.00,0.0368
656.00,0.0373
655.00,0.0381
654.00,0.0387
653.00,0.0386
652.00,0.0377
651.00,0.0365
650.00,0.0353
