Created as New Dataset,
cm-1,A
4000.00,0.0025
3999.00,0.0025
3998.00,0.0025
3997.00,0.0026
3996.00,0.0026
3995.00,0.0026
3994.00,0.0026
3993.00,0.0026
3992.00,0.0025
3991.00,0.0025
3990.00,0.0024
3989.00,0.0024
3988.00,0.0024
3987.00,0.0025
3986.00,0.0025
3985.00,0.0025
3984.00,0.0025
3983.00,0.0025
3982.00,0.0025
3981.00,0.0025
3980.00,0.0026
3979.00,0.0026
3978.00,0.0026
3977.00,0.0026
3976.00,0.0026
3975.00,0.0026
3974.00,0.0026
3973.00,0.0026
3972.00,0.0026
3971.00,0.0026
3970.00,0.0026
3969.00,0.0025
3968.00,0.0025
3967.00,0.0025
3966.00,0.0025
3965.00,0.0026
3964.00,0.0026
3963.00,0.0026
3962.00,0.0027
3961.00,0.0027
3960.00,0.0027
3959.00,0.0028
3958.00,0.0028
3957.00,0.0027
3956.00,0.0027
3955.00,0.0027
3954.00,0.0027
3953.00,0.0028
3952.00,0.0029
3951.00,0.0029
3950.00,0.0029
3949.00,0.0029
3948.00,0.0029
3947.00,0.0029
3946.00,0.0030
3945.00,0.0031
3944.00,0.0031
3943.00,0.0030
3942.00,0.0030
3941.00,0.0029
3940.00,0.0029
3939.00,0.0028
3938.00,0.0027
3937.00,0.0027
3936.00,0.0027
3935.00,0.0028
3934.00,0.0029
3933.00,0.0030
3932.00,0.0030
3931.00,0.0030
3930.00,0.0030
3929.00,0.0031
3928.00,0.0031
3927.00,0.0032
3926.00,0.0032
3925.00,0.0031
3924.00,0.0030
3923.00,0.0030
3922.00,0.0030
3921.00,0.0030
3920.00,0.0030
3919.00,0.0029
3918.00,0.0029
3917.00,0.0029
3916.00,0.0029
3915.00,0.0029
3914.00,0.0029
3913.00,0.0028
3912.00,0.0027
3911.00,0.0026
3910.00,0.0027
3909.00,0.0028
3908.00,0.0029
3907.00,0.0031
3906.00,0.0032
3905.00,0.0033
3904.00,0.0034
3903.00,0.0035
3902.00,0.0038
3901.00,0.0039
3900.00,0.0038
3899.00,0.0036
3898.00,0.0035
3897.00,0.0034
3896.00,0.0033
3895.00,0.0033
3894.00,0.0033
3893.00,0.0032
3892.00,0.0031
3891.00,0.0030
3890.00,0.0030
3889.00,0.0032
3888.00,0.0034
3887.00,0.0035
3886.00,0.0033
3885.00,0.0033
3884.00,0.0035
3883.00,0.0039
3882.00,0.0040
3881.00,0.0037
3880.00,0.0034
3879.00,0.0032
3878.00,0.0033
3877.00,0.0035
3876.00,0.0036
3875.00,0.0034
3874.00,0.0033
3873.00,0.0034
3872.00,0.0037
3871.00,0.0037
3870.00,0.0035
3869.00,0.0034
3868.00,0.0036
3867.00,0.0038
3866.00,0.0038
3865.00,0.0036
3864.00,0.0034
3863.00,0.0034
3862.00,0.0034
3861.00,0.0034
3860.00,0.0033
3859.00,0.0032
3858.00,0.0032
3857.00,0.0034
3856.00,0.0036
3855.00,0.0037
3854.00,0.0035
3853.00,0.0036
3852.00,0.0037
3851.00,0.0038
3850.00,0.0037
3849.00,0.0034
3848.00,0.0032
3847.00,0.0031
3846.00,0.0031
3845.00,0.0031
3844.00,0.0032
3843.00,0.0033
3842.00,0.0035
3841.00,0.0037
3840.00,0.0038
3839.00,0.0038
3838.00,0.0038
3837.00,0.0038
3836.00,0.0037
3835.00,0.0037
3834.00,0.0037
3833.00,0.0035
3832.00,0.0033
3831.00,0.0032
3830.00,0.0032
3829.00,0.0033
3828.00,0.0034
3827.00,0.0032
3826.00,0.0031
3825.00,0.0032
3824.00,0.0035
3823.00,0.0037
3822.00,0.0036
3821.00,0.0033
3820.00,0.0033
3819.00,0.0036
3818.00,0.0038
3817.00,0.0037
3816.00,0.0033
3815.00,0.0031
3814.00,0.0031
3813.00,0.0031
3812.00,0.0030
3811.00,0.0028
3810.00,0.0028
3809.00,0.0029
3808.00,0.0029
3807.00,0.0028
3806.00,0.0028
3805.00,0.0031
3804.00,0.0036
3803.00,0.0037
3802.00,0.0035
3801.00,0.0033
3800.00,0.0034
3799.00,0.0036
3798.00,0.0037
3797.00,0.0034
3796.00,0.0031
3795.00,0.0030
3794.00,0.0030
3793.00,0.0030
3792.00,0.0030
3791.00,0.0029
3790.00,0.0028
3789.00,0.0029
3788.00,0.0029
3787.00,0.0029
3786.00,0.0029
3785.00,0.0029
3784.00,0.0029
3783.00,0.0030
3782.00,0.0032
3781.00,0.0032
3780.00,0.0031
3779.00,0.0029
3778.00,0.0029
3777.00,0.0030
3776.00,0.0030
3775.00,0.0029
3774.00,0.0028
3773.00,0.0028
3772.00,0.0029
3771.00,0.0029
3770.00,0.0028
3769.00,0.0030
3768.00,0.0032
3767.00,0.0034
3766.00,0.0034
3765.00,0.0032
3764.00,0.0031
3763.00,0.0032
3762.00,0.0034
3761.00,0.0034
3760.00,0.0034
3759.00,0.0034
3758.00,0.0034
3757.00,0.0034
3756.00,0.0034
3755.00,0.0035
3754.00,0.0035
3753.00,0.0034
3752.00,0.0032
3751.00,0.0033
3750.00,0.0035
3749.00,0.0037
3748.00,0.0039
3747.00,0.0042
3746.00,0.0043
3745.00,0.0041
3744.00,0.0038
3743.00,0.0038
3742.00,0.0039
3741.00,0.0038
3740.00,0.0036
3739.00,0.0035
3738.00,0.0036
3737.00,0.0038
3736.00,0.0039
3735.00,0.0041
3734.00,0.0043
3733.00,0.0043
3732.00,0.0041
3731.00,0.0039
3730.00,0.0038
3729.00,0.0039
3728.00,0.0040
3727.00,0.0040
3726.00,0.0040
3725.00,0.0042
3724.00,0.0045
3723.00,0.0046
3722.00,0.0047
3721.00,0.0048
3720.00,0.0049
3719.00,0.0049
3718.00,0.0049
3717.00,0.0050
3716.00,0.0052
3715.00,0.0055
3714.00,0.0059
3713.00,0.0062
3712.00,0.0067
3711.00,0.0072
3710.00,0.0078
3709.00,0.0082
3708.00,0.0084
3707.00,0.0086
3706.00,0.0088
3705.00,0.0092
3704.00,0.0098
3703.00,0.0104
3702.00,0.0111
3701.00,0.0116
3700.00,0.0121
3699.00,0.0124
3698.00,0.0126
3697.00,0.0127
3696.00,0.0128
3695.00,0.0129
3694.00,0.0130
3693.00,0.0131
3692.00,0.0131
3691.00,0.0131
3690.00,0.0130
3689.00,0.0130
3688.00,0.0128
3687.00,0.0125
3686.00,0.0121
3685.00,0.0117
3684.00,0.0112
3683.00,0.0108
3682.00,0.0104
3681.00,0.0102
3680.00,0.0099
3679.00,0.0098
3678.00,0.0100
3677.00,0.0103
3676.00,0.0106
3675.00,0.0107
3674.00,0.0110
3673.00,0.0112
3672.00,0.0113
3671.00,0.0111
3670.00,0.0111
3669.00,0.0112
3668.00,0.0115
3667.00,0.0115
3666.00,0.0114
3665.00,0.0112
3664.00,0.0112
3663.00,0.0112
3662.00,0.0113
3661.00,0.0115
3660.00,0.0117
3659.00,0.0121
3658.00,0.0125
3657.00,0.0129
3656.00,0.0134
3655.00,0.0138
3654.00,0.0142
3653.00,0.0146
3652.00,0.0147
3651.00,0.0147
3650.00,0.0150
3649.00,0.0158
3648.00,0.0164
3647.00,0.0165
3646.00,0.0161
3645.00,0.0156
3644.00,0.0152
3643.00,0.0148
3642.00,0.0144
3641.00,0.0142
3640.00,0.0141
3639.00,0.0140
3638.00,0.0139
3637.00,0.0140
3636.00,0.0140
3635.00,0.0140
3634.00,0.0138
3633.00,0.0138
3632.00,0.0140
3631.00,0.0143
3630.00,0.0148
3629.00,0.0155
3628.00,0.0162
3627.00,0.0169
3626.00,0.0173
3625.00,0.0176
3624.00,0.0179
3623.00,0.0183
3622.00,0.0190
3621.00,0.0195
3620.00,0.0199
3619.00,0.0200
3618.00,0.0197
3617.00,0.0193
3616.00,0.0187
3615.00,0.0180
3614.00,0.0174
3613.00,0.0169
3612.00,0.0167
3611.00,0.0166
3610.00,0.0165
3609.00,0.0165
3608.00,0.0164
3607.00,0.0164
3606.00,0.0164
3605.00,0.0163
3604.00,0.0161
3603.00,0.0160
3602.00,0.0159
3601.00,0.0159
3600.00,0.0160
3599.00,0.0160
3598.00,0.0161
3597.00,0.0161
3596.00,0.0162
3595.00,0.0163
3594.00,0.0163
3593.00,0.0163
3592.00,0.0162
3591.00,0.0162
3590.00,0.0163
3589.00,0.0166
3588.00,0.0169
3587.00,0.0172
3586.00,0.0174
3585.00,0.0174
3584.00,0.0172
3583.00,0.0170
3582.00,0.0169
3581.00,0.0169
3580.00,0.0169
3579.00,0.0170
3578.00,0.0170
3577.00,0.0170
3576.00,0.0170
3575.00,0.0170
3574.00,0.0170
3573.00,0.0170
3572.00,0.0171
3571.00,0.0173
3570.00,0.0175
3569.00,0.0178
3568.00,0.0182
3567.00,0.0186
3566.00,0.0189
3565.00,0.0191
3564.00,0.0190
3563.00,0.0187
3562.00,0.0185
3561.00,0.0184
3560.00,0.0183
3559.00,0.0183
3558.00,0.0183
3557.00,0.0183
3556.00,0.0183
3555.00,0.0184
3554.00,0.0185
3553.00,0.0186
3552.00,0.0188
3551.00,0.0190
3550.00,0.0191
3549.00,0.0191
3548.00,0.0192
3547.00,0.0194
3546.00,0.0196
3545.00,0.0198
3544.00,0.0198
3543.00,0.0198
3542.00,0.0197
3541.00,0.0196
3540.00,0.0196
3539.00,0.0197
3538.00,0.0198
3537.00,0.0199
3536.00,0.0201
3535.00,0.0201
3534.00,0.0202
3533.00,0.0202
3532.00,0.0203
3531.00,0.0203
3530.00,0.0205
3529.00,0.0206
3528.00,0.0208
3527.00,0.0210
3526.00,0.0211
3525.00,0.0212
3524.00,0.0213
3523.00,0.0213
3522.00,0.0213
3521.00,0.0213
3520.00,0.0214
3519.00,0.0214
3518.00,0.0214
3517.00,0.0215
3516.00,0.0216
3515.00,0.0217
3514.00,0.0218
3513.00,0.0218
3512.00,0.0219
3511.00,0.0221
3510.00,0.0222
3509.00,0.0223
3508.00,0.0223
3507.00,0.0224
3506.00,0.0224
3505.00,0.0225
3504.00,0.0226
3503.00,0.0227
3502.00,0.0229
3501.00,0.0230
3500.00,0.0230
3499.00,0.0230
3498.00,0.0230
3497.00,0.0230
3496.00,0.0231
3495.00,0.0232
3494.00,0.0233
3493.00,0.0233
3492.00,0.0234
3491.00,0.0234
3490.00,0.0234
3489.00,0.0235
3488.00,0.0236
3487.00,0.0237
3486.00,0.0239
3485.00,0.0240
3484.00,0.0241
3483.00,0.0242
3482.00,0.0243
3481.00,0.0244
3480.00,0.0244
3479.00,0.0244
3478.00,0.0245
3477.00,0.0245
3476.00,0.0246
3475.00,0.0247
3474.00,0.0248
3473.00,0.0249
3472.00,0.0250
3471.00,0.0251
3470.00,0.0251
3469.00,0.0252
3468.00,0.0252
3467.00,0.0252
3466.00,0.0252
3465.00,0.0253
3464.00,0.0254
3463.00,0.0255
3462.00,0.0256
3461.00,0.0257
3460.00,0.0257
3459.00,0.0257
3458.00,0.0258
3457.00,0.0258
3456.00,0.0259
3455.00,0.0259
3454.00,0.0260
3453.00,0.0261
3452.00,0.0262
3451.00,0.0262
3450.00,0.0263
3449.00,0.0264
3448.00,0.0265
3447.00,0.0266
3446.00,0.0267
3445.00,0.0268
3444.00,0.0268
3443.00,0.0268
3442.00,0.0269
3441.00,0.0269
3440.00,0.0270
3439.00,0.0270
3438.00,0.0270
3437.00,0.0270
3436.00,0.0270
3435.00,0.0271
3434.00,0.0272
3433.00,0.0273
3432.00,0.0274
3431.00,0.0274
3430.00,0.0275
3429.00,0.0275
3428.00,0.0275
3427.00,0.0275
3426.00,0.0276
3425.00,0.0277
3424.00,0.0278
3423.00,0.0278
3422.00,0.0279
3421.00,0.0280
3420.00,0.0281
3419.00,0.0281
3418.00,0.0282
3417.00,0.0282
3416.00,0.0282
3415.00,0.0282
3414.00,0.0283
3413.00,0.0284
3412.00,0.0285
3411.00,0.0285
3410.00,0.0285
3409.00,0.0286
3408.00,0.0286
3407.00,0.0286
3406.00,0.0287
3405.00,0.0287
3404.00,0.0288
3403.00,0.0288
3402.00,0.0289
3401.00,0.0289
3400.00,0.0289
3399.00,0.0289
3398.00,0.0289
3397.00,0.0289
3396.00,0.0290
3395.00,0.0290
3394.00,0.0291
3393.00,0.0292
3392.00,0.0293
3391.00,0.0294
3390.00,0.0294
3389.00,0.0293
3388.00,0.0293
3387.00,0.0293
3386.00,0.0293
3385.00,0.0294
3384.00,0.0294
3383.00,0.0294
3382.00,0.0294
3381.00,0.0294
3380.00,0.0294
3379.00,0.0295
3378.00,0.0295
3377.00,0.0296
3376.00,0.0296
3375.00,0.0297
3374.00,0.0297
3373.00,0.0298
3372.00,0.0298
3371.00,0.0298
3370.00,0.0298
3369.00,0.0297
3368.00,0.0297
3367.00,0.0298
3366.00,0.0299
3365.00,0.0299
3364.00,0.0299
3363.00,0.0299
3362.00,0.0299
3361.00,0.0299
3360.00,0.0299
3359.00,0.0299
3358.00,0.0299
3357.00,0.0300
3356.00,0.0300
3355.00,0.0300
3354.00,0.0300
3353.00,0.0300
3352.00,0.0300
3351.00,0.0300
3350.00,0.0300
3349.00,0.0300
3348.00,0.0299
3347.00,0.0299
3346.00,0.0299
3345.00,0.0300
3344.00,0.0300
3343.00,0.0301
3342.00,0.0301
3341.00,0.0300
3340.00,0.0300
3339.00,0.0300
3338.00,0.0301
3337.00,0.0301
3336.00,0.0302
3335.00,0.0302
3334.00,0.0302
3333.00,0.0302
3332.00,0.0301
3331.00,0.0301
3330.00,0.0301
3329.00,0.0301
3328.00,0.0301
3327.00,0.0302
3326.00,0.0302
3325.00,0.0303
3324.00,0.0303
3323.00,0.0303
3322.00,0.0303
3321.00,0.0302
3320.00,0.0301
3319.00,0.0301
3318.00,0.0301
3317.00,0.0302
3316.00,0.0302
3315.00,0.0302
3314.00,0.0302
3313.00,0.0302
3312.00,0.0302
3311.00,0.0302
3310.00,0.0302
3309.00,0.0303
3308.00,0.0303
3307.00,0.0303
3306.00,0.0303
3305.00,0.0303
3304.00,0.0303
3303.00,0.0303
3302.00,0.0302
3301.00,0.0302
3300.00,0.0302
3299.00,0.0302
3298.00,0.0302
3297.00,0.0302
3296.00,0.0302
3295.00,0.0302
3294.00,0.0302
3293.00,0.0301
3292.00,0.0302
3291.00,0.0302
3290.00,0.0302
3289.00,0.0302
3288.00,0.0302
3287.00,0.0302
3286.00,0.0302
3285.00,0.0302
3284.00,0.0302
3283.00,0.0302
3282.00,0.0301
3281.00,0.0301
3280.00,0.0301
3279.00,0.0301
3278.00,0.0301
3277.00,0.0301
3276.00,0.0301
3275.00,0.0301
3274.00,0.0302
3273.00,0.0302
3272.00,0.0302
3271.00,0.0301
3270.00,0.0300
3269.00,0.0300
3268.00,0.0299
3267.00,0.0298
3266.00,0.0298
3265.00,0.0298
3264.00,0.0298
3263.00,0.0298
3262.00,0.0298
3261.00,0.0298
3260.00,0.0298
3259.00,0.0298
3258.00,0.0298
3257.00,0.0298
3256.00,0.0298
3255.00,0.0298
3254.00,0.0297
3253.00,0.0296
3252.00,0.0295
3251.00,0.0294
3250.00,0.0294
3249.00,0.0295
3248.00,0.0295
3247.00,0.0296
3246.00,0.0296
3245.00,0.0296
3244.00,0.0297
3243.00,0.0296
3242.00,0.0295
3241.00,0.0294
3240.00,0.0294
3239.00,0.0293
3238.00,0.0293
3237.00,0.0293
3236.00,0.0293
3235.00,0.0293
3234.00,0.0293
3233.00,0.0293
3232.00,0.0293
3231.00,0.0293
3230.00,0.0293
3229.00,0.0292
3228.00,0.0291
3227.00,0.0290
3226.00,0.0290
3225.00,0.0289
3224.00,0.0289
3223.00,0.0288
3222.00,0.0288
3221.00,0.0288
3220.00,0.0288
3219.00,0.0288
3218.00,0.0288
3217.00,0.0287
3216.00,0.0286
3215.00,0.0285
3214.00,0.0285
3213.00,0.0285
3212.00,0.0285
3211.00,0.0285
3210.00,0.0284
3209.00,0.0283
3208.00,0.0283
3207.00,0.0283
3206.00,0.0283
3205.00,0.0283
3204.00,0.0282
3203.00,0.0281
3202.00,0.0281
3201.00,0.0281
3200.00,0.0281
3199.00,0.0280
3198.00,0.0280
3197.00,0.0279
3196.00,0.0279
3195.00,0.0278
3194.00,0.0278
3193.00,0.0277
3192.00,0.0277
3191.00,0.0276
3190.00,0.0275
3189.00,0.0275
3188.00,0.0275
3187.00,0.0275
3186.00,0.0274
3185.00,0.0274
3184.00,0.0273
3183.00,0.0273
3182.00,0.0272
3181.00,0.0272
3180.00,0.0271
3179.00,0.0271
3178.00,0.0270
3177.00,0.0270
3176.00,0.0270
3175.00,0.0270
3174.00,0.0269
3173.00,0.0268
3172.00,0.0268
3171.00,0.0267
3170.00,0.0266
3169.00,0.0265
3168.00,0.0264
3167.00,0.0264
3166.00,0.0263
3165.00,0.0263
3164.00,0.0263
3163.00,0.0262
3162.00,0.0261
3161.00,0.0261
3160.00,0.0260
3159.00,0.0261
3158.00,0.0260
3157.00,0.0260
3156.00,0.0259
3155.00,0.0258
3154.00,0.0257
3153.00,0.0257
3152.00,0.0256
3151.00,0.0256
3150.00,0.0255
3149.00,0.0254
3148.00,0.0254
3147.00,0.0254
3146.00,0.0253
3145.00,0.0253
3144.00,0.0252
3143.00,0.0252
3142.00,0.0251
3141.00,0.0250
3140.00,0.0250
3139.00,0.0249
3138.00,0.0249
3137.00,0.0248
3136.00,0.0248
3135.00,0.0247
3134.00,0.0246
3133.00,0.0245
3132.00,0.0245
3131.00,0.0245
3130.00,0.0244
3129.00,0.0244
3128.00,0.0244
3127.00,0.0243
3126.00,0.0242
3125.00,0.0242
3124.00,0.0242
3123.00,0.0242
3122.00,0.0242
3121.00,0.0241
3120.00,0.0240
3119.00,0.0239
3118.00,0.0239
3117.00,0.0238
3116.00,0.0238
3115.00,0.0237
3114.00,0.0237
3113.00,0.0237
3112.00,0.0236
3111.00,0.0235
3110.00,0.0235
3109.00,0.0234
3108.00,0.0233
3107.00,0.0233
3106.00,0.0232
3105.00,0.0232
3104.00,0.0231
3103.00,0.0231
3102.00,0.0231
3101.00,0.0231
3100.00,0.0231
3099.00,0.0230
3098.00,0.0230
3097.00,0.0230
3096.00,0.0229
3095.00,0.0229
3094.00,0.0229
3093.00,0.0228
3092.00,0.0227
3091.00,0.0227
3090.00,0.0226
3089.00,0.0226
3088.00,0.0226
3087.00,0.0225
3086.00,0.0225
3085.00,0.0224
3084.00,0.0224
3083.00,0.0223
3082.00,0.0223
3081.00,0.0223
3080.00,0.0222
3079.00,0.0222
3078.00,0.0221
3077.00,0.0221
3076.00,0.0220
3075.00,0.0220
3074.00,0.0219
3073.00,0.0219
3072.00,0.0218
3071.00,0.0218
3070.00,0.0218
3069.00,0.0217
3068.00,0.0217
3067.00,0.0216
3066.00,0.0216
3065.00,0.0216
3064.00,0.0215
3063.00,0.0215
3062.00,0.0214
3061.00,0.0214
3060.00,0.0213
3059.00,0.0213
3058.00,0.0212
3057.00,0.0212
3056.00,0.0211
3055.00,0.0211
3054.00,0.0210
3053.00,0.0210
3052.00,0.0209
3051.00,0.0208
3050.00,0.0207
3049.00,0.0207
3048.00,0.0206
3047.00,0.0206
3046.00,0.0205
3045.00,0.0205
3044.00,0.0205
3043.00,0.0205
3042.00,0.0205
3041.00,0.0204
3040.00,0.0203
3039.00,0.0203
3038.00,0.0202
3037.00,0.0202
3036.00,0.0201
3035.00,0.0201
3034.00,0.0200
3033.00,0.0200
3032.00,0.0200
3031.00,0.0199
3030.00,0.0199
3029.00,0.0198
3028.00,0.0197
3027.00,0.0196
3026.00,0.0195
3025.00,0.0195
3024.00,0.0195
3023.00,0.0195
3022.00,0.0195
3021.00,0.0194
3020.00,0.0194
3019.00,0.0193
3018.00,0.0193
3017.00,0.0192
3016.00,0.0192
3015.00,0.0192
3014.00,0.0192
3013.00,0.0191
3012.00,0.0191
3011.00,0.0191
3010.00,0.0190
3009.00,0.0189
3008.00,0.0189
3007.00,0.0188
3006.00,0.0188
3005.00,0.0187
3004.00,0.0187
3003.00,0.0187
3002.00,0.0186
3001.00,0.0186
3000.00,0.0185
2999.00,0.0185
2998.00,0.0185
2997.00,0.0185
2996.00,0.0185
2995.00,0.0185
2994.00,0.0185
2993.00,0.0184
2992.00,0.0184
2991.00,0.0183
2990.00,0.0183
2989.00,0.0182
2988.00,0.0182
2987.00,0.0182
2986.00,0.0181
2985.00,0.0181
2984.00,0.0180
2983.00,0.0180
2982.00,0.0179
2981.00,0.0179
2980.00,0.0179
2979.00,0.0179
2978.00,0.0179
2977.00,0.0179
2976.00,0.0180
2975.00,0.0180
2974.00,0.0179
2973.00,0.0179
2972.00,0.0179
2971.00,0.0178
2970.00,0.0178
2969.00,0.0178
2968.00,0.0178
2967.00,0.0178
2966.00,0.0178
2965.00,0.0178
2964.00,0.0177
2963.00,0.0177
2962.00,0.0177
2961.00,0.0177
2960.00,0.0177
2959.00,0.0178
2958.00,0.0178
2957.00,0.0178
2956.00,0.0178
2955.00,0.0179
2954.00,0.0180
2953.00,0.0181
2952.00,0.0181
2951.00,0.0182
2950.00,0.0182
2949.00,0.0182
2948.00,0.0183
2947.00,0.0184
2946.00,0.0185
2945.00,0.0186
2944.00,0.0186
2943.00,0.0187
2942.00,0.0188
2941.00,0.0189
2940.00,0.0189
2939.00,0.0189
2938.00,0.0190
2937.00,0.0190
2936.00,0.0190
2935.00,0.0190
2934.00,0.0190
2933.00,0.0190
2932.00,0.0190
2931.00,0.0190
2930.00,0.0190
2929.00,0.0190
2928.00,0.0190
2927.00,0.0190
2926.00,0.0190
2925.00,0.0190
2924.00,0.0190
2923.00,0.0190
2922.00,0.0190
2921.00,0.0190
2920.00,0.0189
2919.00,0.0187
2918.00,0.0185
2917.00,0.0183
2916.00,0.0182
2915.00,0.0182
2914.00,0.0181
2913.00,0.0181
2912.00,0.0181
2911.00,0.0180
2910.00,0.0180
2909.00,0.0179
2908.00,0.0179
2907.00,0.0178
2906.00,0.0178
2905.00,0.0177
2904.00,0.0176
2903.00,0.0176
2902.00,0.0175
2901.00,0.0174
2900.00,0.0174
2899.00,0.0174
2898.00,0.0173
2897.00,0.0172
2896.00,0.0171
2895.00,0.0171
2894.00,0.0170
2893.00,0.0170
2892.00,0.0170
2891.00,0.0169
2890.00,0.0169
2889.00,0.0169
2888.00,0.0168
2887.00,0.0168
2886.00,0.0168
2885.00,0.0167
2884.00,0.0167
2883.00,0.0167
2882.00,0.0167
2881.00,0.0166
2880.00,0.0165
2879.00,0.0165
2878.00,0.0164
2877.00,0.0163
2876.00,0.0163
2875.00,0.0162
2874.00,0.0161
2873.00,0.0160
2872.00,0.0159
2871.00,0.0159
2870.00,0.0158
2869.00,0.0158
2868.00,0.0158
2867.00,0.0158
2866.00,0.0158
2865.00,0.0158
2864.00,0.0158
2863.00,0.0158
2862.00,0.0159
2861.00,0.0159
2860.00,0.0159
2859.00,0.0160
2858.00,0.0160
2857.00,0.0161
2856.00,0.0161
2855.00,0.0162
2854.00,0.0162
2853.00,0.0162
2852.00,0.0162
2851.00,0.0161
2850.00,0.0159
2849.00,0.0158
2848.00,0.0156
2847.00,0.0154
2846.00,0.0152
2845.00,0.0151
2844.00,0.0150
2843.00,0.0150
2842.00,0.0149
2841.00,0.0149
2840.00,0.0148
2839.00,0.0147
2838.00,0.0147
2837.00,0.0146
2836.00,0.0145
2835.00,0.0144
2834.00,0.0143
2833.00,0.0143
2832.00,0.0142
2831.00,0.0142
2830.00,0.0141
2829.00,0.0141
2828.00,0.0140
2827.00,0.0140
2826.00,0.0140
2825.00,0.0139
2824.00,0.0138
2823.00,0.0138
2822.00,0.0137
2821.00,0.0137
2820.00,0.0136
2819.00,0.0136
2818.00,0.0136
2817.00,0.0135
2816.00,0.0134
2815.00,0.0134
2814.00,0.0133
2813.00,0.0133
2812.00,0.0133
2811.00,0.0133
2810.00,0.0132
2809.00,0.0132
2808.00,0.0132
2807.00,0.0131
2806.00,0.0130
2805.00,0.0130
2804.00,0.0130
2803.00,0.0129
2802.00,0.0129
2801.00,0.0129
2800.00,0.0128
2799.00,0.0128
2798.00,0.0128
2797.00,0.0127
2796.00,0.0127
2795.00,0.0126
2794.00,0.0126
2793.00,0.0126
2792.00,0.0126
2791.00,0.0126
2790.00,0.0126
2789.00,0.0125
2788.00,0.0125
2787.00,0.0125
2786.00,0.0124
2785.00,0.0124
2784.00,0.0123
2783.00,0.0123
2782.00,0.0123
2781.00,0.0123
2780.00,0.0122
2779.00,0.0122
2778.00,0.0121
2777.00,0.0122
2776.00,0.0122
2775.00,0.0122
2774.00,0.0122
2773.00,0.0121
2772.00,0.0121
2771.00,0.0120
2770.00,0.0120
2769.00,0.0120
2768.00,0.0119
2767.00,0.0119
2766.00,0.0118
2765.00,0.0118
2764.00,0.0118
2763.00,0.0118
2762.00,0.0117
2761.00,0.0117
2760.00,0.0117
2759.00,0.0117
2758.00,0.0117
2757.00,0.0117
2756.00,0.0117
2755.00,0.0116
2754.00,0.0116
2753.00,0.0116
2752.00,0.0116
2751.00,0.0115
2750.00,0.0115
2749.00,0.0115
2748.00,0.0115
2747.00,0.0115
2746.00,0.0115
2745.00,0.0114
2744.00,0.0114
2743.00,0.0113
2742.00,0.0113
2741.00,0.0113
2740.00,0.0113
2739.00,0.0113
2738.00,0.0112
2737.00,0.0112
2736.00,0.0112
2735.00,0.0111
2734.00,0.0111
2733.00,0.0110
2732.00,0.0110
2731.00,0.0110
2730.00,0.0110
2729.00,0.0110
2728.00,0.0110
2727.00,0.0110
2726.00,0.0110
2725.00,0.0110
2724.00,0.0110
2723.00,0.0110
2722.00,0.0110
2721.00,0.0109
2720.00,0.0109
2719.00,0.0109
2718.00,0.0108
2717.00,0.0108
2716.00,0.0107
2715.00,0.0107
2714.00,0.0107
2713.00,0.0108
2712.00,0.0107
2711.00,0.0107
2710.00,0.0107
2709.00,0.0107
2708.00,0.0107
2707.00,0.0106
2706.00,0.0106
2705.00,0.0106
2704.00,0.0106
2703.00,0.0106
2702.00,0.0106
2701.00,0.0105
2700.00,0.0105
2699.00,0.0104
2698.00,0.0104
2697.00,0.0104
2696.00,0.0104
2695.00,0.0104
2694.00,0.0104
2693.00,0.0104
2692.00,0.0103
2691.00,0.0103
2690.00,0.0103
2689.00,0.0103
2688.00,0.0103
2687.00,0.0102
2686.00,0.0102
2685.00,0.0102
2684.00,0.0102
2683.00,0.0101
2682.00,0.0101
2681.00,0.0101
2680.00,0.0101
2679.00,0.0102
2678.00,0.0102
2677.00,0.0101
2676.00,0.0101
2675.00,0.0101
2674.00,0.0100
2673.00,0.0100
2672.00,0.0100
2671.00,0.0099
2670.00,0.0099
2669.00,0.0099
2668.00,0.0099
2667.00,0.0099
2666.00,0.0099
2665.00,0.0099
2664.00,0.0099
2663.00,0.0100
2662.00,0.0100
2661.00,0.0100
2660.00,0.0100
2659.00,0.0099
2658.00,0.0099
2657.00,0.0099
2656.00,0.0099
2655.00,0.0099
2654.00,0.0099
2653.00,0.0099
2652.00,0.0099
2651.00,0.0099
2650.00,0.0099
2649.00,0.0099
2648.00,0.0099
2647.00,0.0099
2646.00,0.0099
2645.00,0.0099
2644.00,0.0099
2643.00,0.0099
2642.00,0.0099
2641.00,0.0100
2640.00,0.0099
2639.00,0.0099
2638.00,0.0099
2637.00,0.0098
2636.00,0.0098
2635.00,0.0098
2634.00,0.0097
2633.00,0.0097
2632.00,0.0097
2631.00,0.0097
2630.00,0.0097
2629.00,0.0097
2628.00,0.0097
2627.00,0.0097
2626.00,0.0096
2625.00,0.0096
2624.00,0.0096
2623.00,0.0096
2622.00,0.0095
2621.00,0.0095
2620.00,0.0095
2619.00,0.0095
2618.00,0.0096
2617.00,0.0096
2616.00,0.0096
2615.00,0.0096
2614.00,0.0096
2613.00,0.0096
2612.00,0.0095
2611.00,0.0095
2610.00,0.0095
2609.00,0.0095
2608.00,0.0095
2607.00,0.0095
2606.00,0.0094
2605.00,0.0094
2604.00,0.0094
2603.00,0.0094
2602.00,0.0095
2601.00,0.0095
2600.00,0.0095
2599.00,0.0094
2598.00,0.0094
2597.00,0.0093
2596.00,0.0092
2595.00,0.0092
2594.00,0.0092
2593.00,0.0092
2592.00,0.0093
2591.00,0.0093
2590.00,0.0093
2589.00,0.0093
2588.00,0.0092
2587.00,0.0092
2586.00,0.0091
2585.00,0.0092
2584.00,0.0092
2583.00,0.0093
2582.00,0.0093
2581.00,0.0093
2580.00,0.0092
2579.00,0.0092
2578.00,0.0092
2577.00,0.0092
2576.00,0.0092
2575.00,0.0092
2574.00,0.0092
2573.00,0.0092
2572.00,0.0091
2571.00,0.0091
2570.00,0.0091
2569.00,0.0091
2568.00,0.0091
2567.00,0.0091
2566.00,0.0091
2565.00,0.0091
2564.00,0.0091
2563.00,0.0091
2562.00,0.0091
2561.00,0.0090
2560.00,0.0090
2559.00,0.0090
2558.00,0.0090
2557.00,0.0090
2556.00,0.0090
2555.00,0.0091
2554.00,0.0091
2553.00,0.0091
2552.00,0.0091
2551.00,0.0091
2550.00,0.0090
2549.00,0.0090
2548.00,0.0090
2547.00,0.0090
2546.00,0.0089
2545.00,0.0089
2544.00,0.0088
2543.00,0.0089
2542.00,0.0089
2541.00,0.0090
2540.00,0.0090
2539.00,0.0090
2538.00,0.0090
2537.00,0.0090
2536.00,0.0090
2535.00,0.0090
2534.00,0.0090
2533.00,0.0089
2532.00,0.0089
2531.00,0.0088
2530.00,0.0089
2529.00,0.0089
2528.00,0.0089
2527.00,0.0089
2526.00,0.0089
2525.00,0.0089
2524.00,0.0089
2523.00,0.0089
2522.00,0.0089
2521.00,0.0089
2520.00,0.0088
2519.00,0.0088
2518.00,0.0087
2517.00,0.0087
2516.00,0.0087
2515.00,0.0087
2514.00,0.0087
2513.00,0.0088
2512.00,0.0088
2511.00,0.0088
2510.00,0.0087
2509.00,0.0087
2508.00,0.0086
2507.00,0.0086
2506.00,0.0086
2505.00,0.0086
2504.00,0.0087
2503.00,0.0087
2502.00,0.0087
2501.00,0.0087
2500.00,0.0087
2499.00,0.0087
2498.00,0.0086
2497.00,0.0086
2496.00,0.0086
2495.00,0.0086
2494.00,0.0086
2493.00,0.0086
2492.00,0.0086
2491.00,0.0086
2490.00,0.0085
2489.00,0.0085
2488.00,0.0085
2487.00,0.0085
2486.00,0.0085
2485.00,0.0084
2484.00,0.0084
2483.00,0.0084
2482.00,0.0084
2481.00,0.0085
2480.00,0.0085
2479.00,0.0085
2478.00,0.0084
2477.00,0.0084
2476.00,0.0084
2475.00,0.0084
2474.00,0.0084
2473.00,0.0084
2472.00,0.0084
2471.00,0.0084
2470.00,0.0084
2469.00,0.0084
2468.00,0.0083
2467.00,0.0083
2466.00,0.0083
2465.00,0.0082
2464.00,0.0082
2463.00,0.0082
2462.00,0.0082
2461.00,0.0082
2460.00,0.0083
2459.00,0.0083
2458.00,0.0084
2457.00,0.0084
2456.00,0.0083
2455.00,0.0083
2454.00,0.0083
2453.00,0.0083
2452.00,0.0083
2451.00,0.0083
2450.00,0.0083
2449.00,0.0083
2448.00,0.0082
2447.00,0.0082
2446.00,0.0081
2445.00,0.0081
2444.00,0.0081
2443.00,0.0081
2442.00,0.0081
2441.00,0.0081
2440.00,0.0080
2439.00,0.0080
2438.00,0.0079
2437.00,0.0079
2436.00,0.0079
2435.00,0.0079
2434.00,0.0079
2433.00,0.0079
2432.00,0.0079
2431.00,0.0079
2430.00,0.0079
2429.00,0.0079
2428.00,0.0079
2427.00,0.0079
2426.00,0.0079
2425.00,0.0080
2424.00,0.0079
2423.00,0.0079
2422.00,0.0078
2421.00,0.0078
2420.00,0.0077
2419.00,0.0077
2418.00,0.0077
2417.00,0.0077
2416.00,0.0078
2415.00,0.0078
2414.00,0.0078
2413.00,0.0078
2412.00,0.0078
2411.00,0.0078
2410.00,0.0078
2409.00,0.0077
2408.00,0.0076
2407.00,0.0076
2406.00,0.0076
2405.00,0.0076
2404.00,0.0076
2403.00,0.0075
2402.00,0.0075
2401.00,0.0075
2400.00,0.0075
2399.00,0.0075
2398.00,0.0075
2397.00,0.0075
2396.00,0.0075
2395.00,0.0075
2394.00,0.0074
2393.00,0.0074
2392.00,0.0074
2391.00,0.0074
2390.00,0.0073
2389.00,0.0072
2388.00,0.0071
2387.00,0.0070
2386.00,0.0069
2385.00,0.0068
2384.00,0.0067
2383.00,0.0065
2382.00,0.0064
2381.00,0.0063
2380.00,0.0062
2379.00,0.0061
2378.00,0.0060
2377.00,0.0061
2376.00,0.0062
2375.00,0.0063
2374.00,0.0065
2373.00,0.0066
2372.00,0.0066
2371.00,0.0065
2370.00,0.0064
2369.00,0.0063
2368.00,0.0062
2367.00,0.0062
2366.00,0.0062
2365.00,0.0061
2364.00,0.0061
2363.00,0.0061
2362.00,0.0062
2361.00,0.0064
2360.00,0.0066
2359.00,0.0067
2358.00,0.0068
2357.00,0.0069
2356.00,0.0071
2355.00,0.0072
2354.00,0.0072
2353.00,0.0071
2352.00,0.0068
2351.00,0.0065
2350.00,0.0063
2349.00,0.0061
2348.00,0.0058
2347.00,0.0056
2346.00,0.0056
2345.00,0.0059
2344.00,0.0063
2343.00,0.0066
2342.00,0.0067
2341.00,0.0068
2340.00,0.0069
2339.00,0.0069
2338.00,0.0070
2337.00,0.0070
2336.00,0.0069
2335.00,0.0069
2334.00,0.0069
2333.00,0.0070
2332.00,0.0071
2331.00,0.0072
2330.00,0.0073
2329.00,0.0075
2328.00,0.0077
2327.00,0.0079
2326.00,0.0079
2325.00,0.0079
2324.00,0.0079
2323.00,0.0079
2322.00,0.0078
2321.00,0.0077
2320.00,0.0076
2319.00,0.0075
2318.00,0.0075
2317.00,0.0074
2316.00,0.0073
2315.00,0.0072
2314.00,0.0072
2313.00,0.0072
2312.00,0.0072
2311.00,0.0072
2310.00,0.0071
2309.00,0.0070
2308.00,0.0070
2307.00,0.0070
2306.00,0.0070
2305.00,0.0071
2304.00,0.0071
2303.00,0.0071
2302.00,0.0071
2301.00,0.0071
2300.00,0.0070
2299.00,0.0070
2298.00,0.0070
2297.00,0.0070
2296.00,0.0070
2295.00,0.0070
2294.00,0.0070
2293.00,0.0070
2292.00,0.0070
2291.00,0.0071
2290.00,0.0071
2289.00,0.0071
2288.00,0.0071
2287.00,0.0071
2286.00,0.0071
2285.00,0.0071
2284.00,0.0071
2283.00,0.0071
2282.00,0.0071
2281.00,0.0071
2280.00,0.0071
2279.00,0.0071
2278.00,0.0070
2277.00,0.0070
2276.00,0.0070
2275.00,0.0070
2274.00,0.0070
2273.00,0.0071
2272.00,0.0070
2271.00,0.0069
2270.00,0.0068
2269.00,0.0068
2268.00,0.0068
2267.00,0.0067
2266.00,0.0068
2265.00,0.0068
2264.00,0.0068
2263.00,0.0068
2262.00,0.0068
2261.00,0.0068
2260.00,0.0068
2259.00,0.0069
2258.00,0.0069
2257.00,0.0068
2256.00,0.0067
2255.00,0.0066
2254.00,0.0065
2253.00,0.0065
2252.00,0.0065
2251.00,0.0066
2250.00,0.0067
2249.00,0.0068
2248.00,0.0068
2247.00,0.0068
2246.00,0.0067
2245.00,0.0067
2244.00,0.0066
2243.00,0.0066
2242.00,0.0066
2241.00,0.0067
2240.00,0.0067
2239.00,0.0067
2238.00,0.0067
2237.00,0.0066
2236.00,0.0066
2235.00,0.0066
2234.00,0.0066
2233.00,0.0067
2232.00,0.0068
2231.00,0.0068
2230.00,0.0068
2229.00,0.0068
2228.00,0.0068
2227.00,0.0068
2226.00,0.0068
2225.00,0.0067
2224.00,0.0066
2223.00,0.0065
2222.00,0.0065
2221.00,0.0066
2220.00,0.0067
2219.00,0.0067
2218.00,0.0068
2217.00,0.0068
2216.00,0.0069
2215.00,0.0070
2214.00,0.0070
2213.00,0.0070
2212.00,0.0069
2211.00,0.0067
2210.00,0.0066
2209.00,0.0065
2208.00,0.0065
2207.00,0.0065
2206.00,0.0066
2205.00,0.0068
2204.00,0.0069
2203.00,0.0070
2202.00,0.0069
2201.00,0.0068
2200.00,0.0067
2199.00,0.0067
2198.00,0.0068
2197.00,0.0068
2196.00,0.0068
2195.00,0.0068
2194.00,0.0067
2193.00,0.0066
2192.00,0.0066
2191.00,0.0066
2190.00,0.0066
2189.00,0.0067
2188.00,0.0068
2187.00,0.0067
2186.00,0.0067
2185.00,0.0068
2184.00,0.0068
2183.00,0.0069
2182.00,0.0068
2181.00,0.0068
2180.00,0.0068
2179.00,0.0068
2178.00,0.0068
2177.00,0.0067
2176.00,0.0067
2175.00,0.0067
2174.00,0.0067
2173.00,0.0068
2172.00,0.0069
2171.00,0.0069
2170.00,0.0067
2169.00,0.0066
2168.00,0.0066
2167.00,0.0069
2166.00,0.0071
2165.00,0.0074
2164.00,0.0076
2163.00,0.0076
2162.00,0.0074
2161.00,0.0069
2160.00,0.0063
2159.00,0.0058
2158.00,0.0054
2157.00,0.0053
2156.00,0.0054
2155.00,0.0055
2154.00,0.0057
2153.00,0.0059
2152.00,0.0060
2151.00,0.0060
2150.00,0.0060
2149.00,0.0059
2148.00,0.0059
2147.00,0.0058
2146.00,0.0058
2145.00,0.0058
2144.00,0.0059
2143.00,0.0060
2142.00,0.0060
2141.00,0.0060
2140.00,0.0060
2139.00,0.0059
2138.00,0.0058
2137.00,0.0057
2136.00,0.0056
2135.00,0.0055
2134.00,0.0055
2133.00,0.0056
2132.00,0.0056
2131.00,0.0056
2130.00,0.0056
2129.00,0.0056
2128.00,0.0055
2127.00,0.0055
2126.00,0.0055
2125.00,0.0056
2124.00,0.0056
2123.00,0.0057
2122.00,0.0058
2121.00,0.0059
2120.00,0.0060
2119.00,0.0061
2118.00,0.0062
2117.00,0.0062
2116.00,0.0062
2115.00,0.0061
2114.00,0.0060
2113.00,0.0059
2112.00,0.0059
2111.00,0.0059
2110.00,0.0060
2109.00,0.0061
2108.00,0.0062
2107.00,0.0061
2106.00,0.0060
2105.00,0.0059
2104.00,0.0058
2103.00,0.0058
2102.00,0.0059
2101.00,0.0059
2100.00,0.0060
2099.00,0.0060
2098.00,0.0060
2097.00,0.0060
2096.00,0.0059
2095.00,0.0058
2094.00,0.0058
2093.00,0.0059
2092.00,0.0060
2091.00,0.0060
2090.00,0.0061
2089.00,0.0061
2088.00,0.0060
2087.00,0.0060
2086.00,0.0060
2085.00,0.0060
2084.00,0.0059
2083.00,0.0058
2082.00,0.0058
2081.00,0.0058
2080.00,0.0058
2079.00,0.0058
2078.00,0.0059
2077.00,0.0060
2076.00,0.0061
2075.00,0.0061
2074.00,0.0060
2073.00,0.0059
2072.00,0.0059
2071.00,0.0058
2070.00,0.0058
2069.00,0.0058
2068.00,0.0058
2067.00,0.0058
2066.00,0.0059
2065.00,0.0059
2064.00,0.0060
2063.00,0.0060
2062.00,0.0060
2061.00,0.0060
2060.00,0.0060
2059.00,0.0059
2058.00,0.0059
2057.00,0.0059
2056.00,0.0059
2055.00,0.0060
2054.00,0.0061
2053.00,0.0061
2052.00,0.0061
2051.00,0.0062
2050.00,0.0062
2049.00,0.0062
2048.00,0.0061
2047.00,0.0061
2046.00,0.0060
2045.00,0.0061
2044.00,0.0061
2043.00,0.0061
2042.00,0.0060
2041.00,0.0059
2040.00,0.0059
2039.00,0.0060
2038.00,0.0061
2037.00,0.0062
2036.00,0.0062
2035.00,0.0060
2034.00,0.0058
2033.00,0.0057
2032.00,0.0056
2031.00,0.0056
2030.00,0.0057
2029.00,0.0058
2028.00,0.0058
2027.00,0.0057
2026.00,0.0056
2025.00,0.0055
2024.00,0.0055
2023.00,0.0055
2022.00,0.0056
2021.00,0.0057
2020.00,0.0059
2019.00,0.0059
2018.00,0.0059
2017.00,0.0058
2016.00,0.0057
2015.00,0.0056
2014.00,0.0056
2013.00,0.0056
2012.00,0.0055
2011.00,0.0054
2010.00,0.0052
2009.00,0.0052
2008.00,0.0051
2007.00,0.0052
2006.00,0.0053
2005.00,0.0055
2004.00,0.0055
2003.00,0.0055
2002.00,0.0055
2001.00,0.0054
2000.00,0.0055
1999.00,0.0056
1998.00,0.0057
1997.00,0.0058
1996.00,0.0058
1995.00,0.0058
1994.00,0.0058
1993.00,0.0058
1992.00,0.0056
1991.00,0.0055
1990.00,0.0055
1989.00,0.0055
1988.00,0.0056
1987.00,0.0056
1986.00,0.0055
1985.00,0.0054
1984.00,0.0054
1983.00,0.0056
1982.00,0.0059
1981.00,0.0062
1980.00,0.0062
1979.00,0.0061
1978.00,0.0060
1977.00,0.0059
1976.00,0.0059
1975.00,0.0058
1974.00,0.0056
1973.00,0.0054
1972.00,0.0053
1971.00,0.0054
1970.00,0.0055
1969.00,0.0056
1968.00,0.0057
1967.00,0.0056
1966.00,0.0054
1965.00,0.0052
1964.00,0.0052
1963.00,0.0053
1962.00,0.0055
1961.00,0.0055
1960.00,0.0054
1959.00,0.0053
1958.00,0.0052
1957.00,0.0050
1956.00,0.0049
1955.00,0.0047
1954.00,0.0047
1953.00,0.0048
1952.00,0.0049
1951.00,0.0050
1950.00,0.0050
1949.00,0.0049
1948.00,0.0049
1947.00,0.0050
1946.00,0.0050
1945.00,0.0051
1944.00,0.0051
1943.00,0.0049
1942.00,0.0048
1941.00,0.0048
1940.00,0.0048
1939.00,0.0047
1938.00,0.0047
1937.00,0.0047
1936.00,0.0047
1935.00,0.0048
1934.00,0.0048
1933.00,0.0048
1932.00,0.0049
1931.00,0.0049
1930.00,0.0049
1929.00,0.0049
1928.00,0.0049
1927.00,0.0049
1926.00,0.0049
1925.00,0.0051
1924.00,0.0052
1923.00,0.0051
1922.00,0.0050
1921.00,0.0049
1920.00,0.0049
1919.00,0.0048
1918.00,0.0047
1917.00,0.0046
1916.00,0.0046
1915.00,0.0045
1914.00,0.0045
1913.00,0.0045
1912.00,0.0046
1911.00,0.0047
1910.00,0.0047
1909.00,0.0047
1908.00,0.0047
1907.00,0.0046
1906.00,0.0045
1905.00,0.0045
1904.00,0.0045
1903.00,0.0045
1902.00,0.0045
1901.00,0.0044
1900.00,0.0044
1899.00,0.0044
1898.00,0.0044
1897.00,0.0045
1896.00,0.0045
1895.00,0.0045
1894.00,0.0045
1893.00,0.0045
1892.00,0.0045
1891.00,0.0045
1890.00,0.0044
1889.00,0.0042
1888.00,0.0042
1887.00,0.0042
1886.00,0.0043
1885.00,0.0044
1884.00,0.0044
1883.00,0.0044
1882.00,0.0043
1881.00,0.0044
1880.00,0.0043
1879.00,0.0043
1878.00,0.0042
1877.00,0.0041
1876.00,0.0041
1875.00,0.0041
1874.00,0.0041
1873.00,0.0041
1872.00,0.0043
1871.00,0.0043
1870.00,0.0042
1869.00,0.0041
1868.00,0.0040
1867.00,0.0040
1866.00,0.0041
1865.00,0.0041
1864.00,0.0041
1863.00,0.0040
1862.00,0.0039
1861.00,0.0039
1860.00,0.0039
1859.00,0.0039
1858.00,0.0039
1857.00,0.0039
1856.00,0.0040
1855.00,0.0040
1854.00,0.0039
1853.00,0.0039
1852.00,0.0038
1851.00,0.0038
1850.00,0.0037
1849.00,0.0037
1848.00,0.0038
1847.00,0.0038
1846.00,0.0038
1845.00,0.0037
1844.00,0.0035
1843.00,0.0033
1842.00,0.0034
1841.00,0.0035
1840.00,0.0036
1839.00,0.0035
1838.00,0.0035
1837.00,0.0035
1836.00,0.0035
1835.00,0.0035
1834.00,0.0035
1833.00,0.0037
1832.00,0.0038
1831.00,0.0038
1830.00,0.0037
1829.00,0.0036
1828.00,0.0037
1827.00,0.0037
1826.00,0.0037
1825.00,0.0036
1824.00,0.0035
1823.00,0.0034
1822.00,0.0034
1821.00,0.0034
1820.00,0.0034
1819.00,0.0034
1818.00,0.0033
1817.00,0.0033
1816.00,0.0033
1815.00,0.0034
1814.00,0.0034
1813.00,0.0034
1812.00,0.0034
1811.00,0.0033
1810.00,0.0032
1809.00,0.0032
1808.00,0.0032
1807.00,0.0032
1806.00,0.0032
1805.00,0.0034
1804.00,0.0035
1803.00,0.0037
1802.00,0.0037
1801.00,0.0036
1800.00,0.0036
1799.00,0.0035
1798.00,0.0035
1797.00,0.0036
1796.00,0.0037
1795.00,0.0037
1794.00,0.0037
1793.00,0.0036
1792.00,0.0036
1791.00,0.0037
1790.00,0.0038
1789.00,0.0039
1788.00,0.0039
1787.00,0.0039
1786.00,0.0039
1785.00,0.0039
1784.00,0.0040
1783.00,0.0042
1782.00,0.0043
1781.00,0.0044
1780.00,0.0044
1779.00,0.0044
1778.00,0.0045
1777.00,0.0047
1776.00,0.0049
1775.00,0.0051
1774.00,0.0052
1773.00,0.0052
1772.00,0.0051
1771.00,0.0052
1770.00,0.0053
1769.00,0.0053
1768.00,0.0055
1767.00,0.0056
1766.00,0.0058
1765.00,0.0061
1764.00,0.0063
1763.00,0.0065
1762.00,0.0066
1761.00,0.0068
1760.00,0.0070
1759.00,0.0073
1758.00,0.0076
1757.00,0.0079
1756.00,0.0082
1755.00,0.0086
1754.00,0.0090
1753.00,0.0094
1752.00,0.0098
1751.00,0.0103
1750.00,0.0109
1749.00,0.0115
1748.00,0.0120
1747.00,0.0125
1746.00,0.0129
1745.00,0.0133
1744.00,0.0136
1743.00,0.0140
1742.00,0.0143
1741.00,0.0144
1740.00,0.0146
1739.00,0.0148
1738.00,0.0150
1737.00,0.0153
1736.00,0.0155
1735.00,0.0154
1734.00,0.0155
1733.00,0.0158
1732.00,0.0162
1731.00,0.0165
1730.00,0.0167
1729.00,0.0169
1728.00,0.0169
1727.00,0.0170
1726.00,0.0170
1725.00,0.0170
1724.00,0.0170
1723.00,0.0169
1722.00,0.0168
1721.00,0.0168
1720.00,0.0167
1719.00,0.0163
1718.00,0.0158
1717.00,0.0156
1716.00,0.0156
1715.00,0.0156
1714.00,0.0156
1713.00,0.0157
1712.00,0.0157
1711.00,0.0156
1710.00,0.0156
1709.00,0.0157
1708.00,0.0159
1707.00,0.0161
1706.00,0.0162
1705.00,0.0163
1704.00,0.0165
1703.00,0.0166
1702.00,0.0166
1701.00,0.0166
1700.00,0.0166
1699.00,0.0166
1698.00,0.0169
1697.00,0.0173
1696.00,0.0175
1695.00,0.0176
1694.00,0.0176
1693.00,0.0179
1692.00,0.0182
1691.00,0.0184
1690.00,0.0185
1689.00,0.0187
1688.00,0.0190
1687.00,0.0193
1686.00,0.0194
1685.00,0.0196
1684.00,0.0201
1683.00,0.0205
1682.00,0.0207
1681.00,0.0210
1680.00,0.0212
1679.00,0.0213
1678.00,0.0215
1677.00,0.0216
1676.00,0.0218
1675.00,0.0221
1674.00,0.0225
1673.00,0.0229
1672.00,0.0232
1671.00,0.0234
1670.00,0.0239
1669.00,0.0244
1668.00,0.0248
1667.00,0.0250
1666.00,0.0251
1665.00,0.0253
1664.00,0.0255
1663.00,0.0258
1662.00,0.0262
1661.00,0.0265
1660.00,0.0268
1659.00,0.0270
1658.00,0.0272
1657.00,0.0274
1656.00,0.0277
1655.00,0.0279
1654.00,0.0284
1653.00,0.0292
1652.00,0.0295
1651.00,0.0294
1650.00,0.0295
1649.00,0.0297
1648.00,0.0298
1647.00,0.0301
1646.00,0.0305
1645.00,0.0307
1644.00,0.0308
1643.00,0.0309
1642.00,0.0310
1641.00,0.0311
1640.00,0.0312
1639.00,0.0313
1638.00,0.0313
1637.00,0.0315
1636.00,0.0320
1635.00,0.0324
1634.00,0.0325
1633.00,0.0326
1632.00,0.0326
1631.00,0.0326
1630.00,0.0327
1629.00,0.0329
1628.00,0.0331
1627.00,0.0332
1626.00,0.0332
1625.00,0.0332
1624.00,0.0333
1623.00,0.0334
1622.00,0.0335
1621.00,0.0334
1620.00,0.0333
1619.00,0.0332
1618.00,0.0331
1617.00,0.0332
1616.00,0.0334
1615.00,0.0335
1614.00,0.0335
1613.00,0.0335
1612.00,0.0334
1611.00,0.0334
1610.00,0.0336
1609.00,0.0337
1608.00,0.0337
1607.00,0.0338
1606.00,0.0338
1605.00,0.0337
1604.00,0.0337
1603.00,0.0337
1602.00,0.0338
1601.00,0.0338
1600.00,0.0338
1599.00,0.0338
1598.00,0.0338
1597.00,0.0339
1596.00,0.0339
1595.00,0.0339
1594.00,0.0339
1593.00,0.0339
1592.00,0.0339
1591.00,0.0339
1590.00,0.0339
1589.00,0.0339
1588.00,0.0339
1587.00,0.0338
1586.00,0.0338
1585.00,0.0337
1584.00,0.0336
1583.00,0.0336
1582.00,0.0336
1581.00,0.0336
1580.00,0.0335
1579.00,0.0335
1578.00,0.0334
1577.00,0.0333
1576.00,0.0333
1575.00,0.0334
1574.00,0.0333
1573.00,0.0332
1572.00,0.0331
1571.00,0.0329
1570.00,0.0329
1569.00,0.0329
1568.00,0.0328
1567.00,0.0327
1566.00,0.0326
1565.00,0.0325
1564.00,0.0324
1563.00,0.0323
1562.00,0.0323
1561.00,0.0321
1560.00,0.0318
1559.00,0.0321
1558.00,0.0323
1557.00,0.0319
1556.00,0.0315
1555.00,0.0312
1554.00,0.0310
1553.00,0.0307
1552.00,0.0306
1551.00,0.0305
1550.00,0.0304
1549.00,0.0302
1548.00,0.0298
1547.00,0.0295
1546.00,0.0293
1545.00,0.0291
1544.00,0.0289
1543.00,0.0287
1542.00,0.0282
1541.00,0.0279
1540.00,0.0280
1539.00,0.0281
1538.00,0.0278
1537.00,0.0275
1536.00,0.0273
1535.00,0.0271
1534.00,0.0270
1533.00,0.0270
1532.00,0.0269
1531.00,0.0266
1530.00,0.0263
1529.00,0.0261
1528.00,0.0258
1527.00,0.0256
1526.00,0.0253
1525.00,0.0252
1524.00,0.0250
1523.00,0.0248
1522.00,0.0245
1521.00,0.0245
1520.00,0.0245
1519.00,0.0245
1518.00,0.0245
1517.00,0.0243
1516.00,0.0241
1515.00,0.0238
1514.00,0.0234
1513.00,0.0232
1512.00,0.0231
1511.00,0.0231
1510.00,0.0232
1509.00,0.0232
1508.00,0.0232
1507.00,0.0231
1506.00,0.0227
1505.00,0.0220
1504.00,0.0216
1503.00,0.0215
1502.00,0.0213
1501.00,0.0211
1500.00,0.0209
1499.00,0.0207
1498.00,0.0205
1497.00,0.0203
1496.00,0.0203
1495.00,0.0204
1494.00,0.0204
1493.00,0.0204
1492.00,0.0204
1491.00,0.0204
1490.00,0.0206
1489.00,0.0208
1488.00,0.0210
1487.00,0.0209
1486.00,0.0207
1485.00,0.0206
1484.00,0.0205
1483.00,0.0205
1482.00,0.0205
1481.00,0.0206
1480.00,0.0207
1479.00,0.0208
1478.00,0.0209
1477.00,0.0212
1476.00,0.0214
1475.00,0.0215
1474.00,0.0215
1473.00,0.0218
1472.00,0.0221
1471.00,0.0223
1470.00,0.0225
1469.00,0.0226
1468.00,0.0228
1467.00,0.0229
1466.00,0.0230
1465.00,0.0231
1464.00,0.0233
1463.00,0.0233
1462.00,0.0234
1461.00,0.0235
1460.00,0.0235
1459.00,0.0234
1458.00,0.0232
1457.00,0.0233
1456.00,0.0235
1455.00,0.0237
1454.00,0.0238
1453.00,0.0239
1452.00,0.0240
1451.00,0.0240
1450.00,0.0241
1449.00,0.0242
1448.00,0.0243
1447.00,0.0244
1446.00,0.0244
1445.00,0.0243
1444.00,0.0243
1443.00,0.0243
1442.00,0.0243
1441.00,0.0244
1440.00,0.0244
1439.00,0.0244
1438.00,0.0243
1437.00,0.0244
1436.00,0.0247
1435.00,0.0249
1434.00,0.0251
1433.00,0.0251
1432.00,0.0252
1431.00,0.0253
1430.00,0.0255
1429.00,0.0256
1428.00,0.0256
1427.00,0.0257
1426.00,0.0257
1425.00,0.0258
1424.00,0.0260
1423.00,0.0261
1422.00,0.0261
1421.00,0.0260
1420.00,0.0260
1419.00,0.0262
1418.00,0.0265
1417.00,0.0266
1416.00,0.0267
1415.00,0.0266
1414.00,0.0266
1413.00,0.0266
1412.00,0.0266
1411.00,0.0267
1410.00,0.0267
1409.00,0.0267
1408.00,0.0267
1407.00,0.0267
1406.00,0.0268
1405.00,0.0269
1404.00,0.0270
1403.00,0.0271
1402.00,0.0272
1401.00,0.0272
1400.00,0.0272
1399.00,0.0274
1398.00,0.0275
1397.00,0.0276
1396.00,0.0278
1395.00,0.0279
1394.00,0.0280
1393.00,0.0279
1392.00,0.0279
1391.00,0.0280
1390.00,0.0281
1389.00,0.0282
1388.00,0.0284
1387.00,0.0287
1386.00,0.0289
1385.00,0.0290
1384.00,0.0291
1383.00,0.0291
1382.00,0.0291
1381.00,0.0292
1380.00,0.0292
1379.00,0.0292
1378.00,0.0292
1377.00,0.0291
1376.00,0.0292
1375.00,0.0292
1374.00,0.0293
1373.00,0.0292
1372.00,0.0291
1371.00,0.0290
1370.00,0.0289
1369.00,0.0288
1368.00,0.0288
1367.00,0.0287
1366.00,0.0286
1365.00,0.0285
1364.00,0.0285
1363.00,0.0285
1362.00,0.0285
1361.00,0.0283
1360.00,0.0282
1359.00,0.0280
1358.00,0.0279
1357.00,0.0277
1356.00,0.0276
1355.00,0.0275
1354.00,0.0273
1353.00,0.0272
1352.00,0.0271
1351.00,0.0270
1350.00,0.0268
1349.00,0.0267
1348.00,0.0267
1347.00,0.0266
1346.00,0.0265
1345.00,0.0264
1344.00,0.0263
1343.00,0.0262
1342.00,0.0261
1341.00,0.0261
1340.00,0.0261
1339.00,0.0261
1338.00,0.0261
1337.00,0.0259
1336.00,0.0258
1335.00,0.0256
1334.00,0.0255
1333.00,0.0254
1332.00,0.0253
1331.00,0.0252
1330.00,0.0252
1329.00,0.0251
1328.00,0.0251
1327.00,0.0250
1326.00,0.0250
1325.00,0.0250
1324.00,0.0250
1323.00,0.0250
1322.00,0.0250
1321.00,0.0250
1320.00,0.0250
1319.00,0.0251
1318.00,0.0253
1317.00,0.0254
1316.00,0.0255
1315.00,0.0256
1314.00,0.0256
1313.00,0.0257
1312.00,0.0257
1311.00,0.0257
1310.00,0.0256
1309.00,0.0256
1308.00,0.0256
1307.00,0.0255
1306.00,0.0255
1305.00,0.0255
1304.00,0.0254
1303.00,0.0254
1302.00,0.0254
1301.00,0.0253
1300.00,0.0253
1299.00,0.0254
1298.00,0.0254
1297.00,0.0253
1296.00,0.0253
1295.00,0.0253
1294.00,0.0253
1293.00,0.0253
1292.00,0.0253
1291.00,0.0253
1290.00,0.0254
1289.00,0.0254
1288.00,0.0254
1287.00,0.0254
1286.00,0.0254
1285.00,0.0254
1284.00,0.0255
1283.00,0.0255
1282.00,0.0255
1281.00,0.0256
1280.00,0.0257
1279.00,0.0257
1278.00,0.0258
1277.00,0.0258
1276.00,0.0259
1275.00,0.0260
1274.00,0.0261
1273.00,0.0261
1272.00,0.0262
1271.00,0.0263
1270.00,0.0264
1269.00,0.0265
1268.00,0.0266
1267.00,0.0267
1266.00,0.0268
1265.00,0.0269
1264.00,0.0270
1263.00,0.0271
1262.00,0.0273
1261.00,0.0275
1260.00,0.0276
1259.00,0.0278
1258.00,0.0280
1257.00,0.0281
1256.00,0.0283
1255.00,0.0285
1254.00,0.0287
1253.00,0.0290
1252.00,0.0292
1251.00,0.0294
1250.00,0.0295
1249.00,0.0297
1248.00,0.0298
1247.00,0.0300
1246.00,0.0301
1245.00,0.0302
1244.00,0.0304
1243.00,0.0305
1242.00,0.0307
1241.00,0.0308
1240.00,0.0309
1239.00,0.0311
1238.00,0.0312
1237.00,0.0314
1236.00,0.0315
1235.00,0.0315
1234.00,0.0316
1233.00,0.0316
1232.00,0.0318
1231.00,0.0319
1230.00,0.0320
1229.00,0.0321
1228.00,0.0322
1227.00,0.0322
1226.00,0.0323
1225.00,0.0324
1224.00,0.0325
1223.00,0.0326
1222.00,0.0326
1221.00,0.0326
1220.00,0.0326
1219.00,0.0326
1218.00,0.0327
1217.00,0.0328
1216.00,0.0329
1215.00,0.0330
1214.00,0.0331
1213.00,0.0332
1212.00,0.0333
1211.00,0.0334
1210.00,0.0335
1209.00,0.0336
1208.00,0.0338
1207.00,0.0340
1206.00,0.0341
1205.00,0.0343
1204.00,0.0344
1203.00,0.0345
1202.00,0.0346
1201.00,0.0348
1200.00,0.0349
1199.00,0.0351
1198.00,0.0353
1197.00,0.0355
1196.00,0.0357
1195.00,0.0359
1194.00,0.0361
1193.00,0.0363
1192.00,0.0365
1191.00,0.0367
1190.00,0.0369
1189.00,0.0371
1188.00,0.0373
1187.00,0.0376
1186.00,0.0378
1185.00,0.0380
1184.00,0.0382
1183.00,0.0385
1182.00,0.0387
1181.00,0.0389
1180.00,0.0391
1179.00,0.0394
1178.00,0.0396
1177.00,0.0399
1176.00,0.0401
1175.00,0.0402
1174.00,0.0404
1173.00,0.0405
1172.00,0.0407
1171.00,0.0409
1170.00,0.0411
1169.00,0.0414
1168.00,0.0417
1167.00,0.0419
1166.00,0.0422
1165.00,0.0423
1164.00,0.0424
1163.00,0.0425
1162.00,0.0426
1161.00,0.0426
1160.00,0.0426
1159.00,0.0427
1158.00,0.0427
1157.00,0.0427
1156.00,0.0428
1155.00,0.0429
1154.00,0.0430
1153.00,0.0432
1152.00,0.0434
1151.00,0.0437
1150.00,0.0439
1149.00,0.0442
1148.00,0.0446
1147.00,0.0449
1146.00,0.0452
1145.00,0.0456
1144.00,0.0459
1143.00,0.0461
1142.00,0.0464
1141.00,0.0466
1140.00,0.0469
1139.00,0.0472
1138.00,0.0476
1137.00,0.0480
1136.00,0.0485
1135.00,0.0489
1134.00,0.0494
1133.00,0.0499
1132.00,0.0504
1131.00,0.0509
1130.00,0.0515
1129.00,0.0521
1128.00,0.0527
1127.00,0.0535
1126.00,0.0542
1125.00,0.0551
1124.00,0.0560
1123.00,0.0569
1122.00,0.0579
1121.00,0.0590
1120.00,0.0602
1119.00,0.0615
1118.00,0.0625
1117.00,0.0634
1116.00,0.0640
1115.00,0.0644
1114.00,0.0647
1113.00,0.0650
1112.00,0.0654
1111.00,0.0657
1110.00,0.0661
1109.00,0.0666
1108.00,0.0673
1107.00,0.0680
1106.00,0.0688
1105.00,0.0696
1104.00,0.0704
1103.00,0.0712
1102.00,0.0718
1101.00,0.0725
1100.00,0.0732
1099.00,0.0738
1098.00,0.0744
1097.00,0.0749
1096.00,0.0754
1095.00,0.0759
1094.00,0.0764
1093.00,0.0769
1092.00,0.0775
1091.00,0.0780
1090.00,0.0784
1089.00,0.0788
1088.00,0.0793
1087.00,0.0797
1086.00,0.0800
1085.00,0.0802
1084.00,0.0806
1083.00,0.0809
1082.00,0.0813
1081.00,0.0816
1080.00,0.0819
1079.00,0.0823
1078.00,0.0826
1077.00,0.0829
1076.00,0.0833
1075.00,0.0836
1074.00,0.0838
1073.00,0.0842
1072.00,0.0846
1071.00,0.0850
1070.00,0.0854
1069.00,0.0857
1068.00,0.0861
1067.00,0.0866
1066.00,0.0871
1065.00,0.0877
1064.00,0.0883
1063.00,0.0889
1062.00,0.0893
1061.00,0.0898
1060.00,0.0903
1059.00,0.0909
1058.00,0.0916
1057.00,0.0921
1056.00,0.0927
1055.00,0.0932
1054.00,0.0938
1053.00,0.0945
1052.00,0.0954
1051.00,0.0962
1050.00,0.0969
1049.00,0.0976
1048.00,0.0984
1047.00,0.0993
1046.00,0.1002
1045.00,0.1011
1044.00,0.1020
1043.00,0.1029
1042.00,0.1038
1041.00,0.1048
1040.00,0.1060
1039.00,0.1071
1038.00,0.1083
1037.00,0.1095
1036.00,0.1107
1035.00,0.1117
1034.00,0.1126
1033.00,0.1132
1032.00,0.1137
1031.00,0.1138
1030.00,0.1136
1029.00,0.1132
1028.00,0.1125
1027.00,0.1117
1026.00,0.1107
1025.00,0.1098
1024.00,0.1090
1023.00,0.1082
1022.00,0.1076
1021.00,0.1071
1020.00,0.1067
1019.00,0.1065
1018.00,0.1063
1017.00,0.1063
1016.00,0.1065
1015.00,0.1069
1014.00,0.1073
1013.00,0.1079
1012.00,0.1085
1011.00,0.1091
1010.00,0.1098
1009.00,0.1104
1008.00,0.1110
1007.00,0.1115
1006.00,0.1118
1005.00,0.1120
1004.00,0.1121
1003.00,0.1119
1002.00,0.1116
1001.00,0.1111
1000.00,0.1104
999.00,0.1095
998.00,0.1084
997.00,0.1071
996.00,0.1057
995.00,0.1043
994.00,0.1030
993.00,0.1018
992.00,0.1006
991.00,0.0995
990.00,0.0983
989.00,0.0971
988.00,0.0961
987.00,0.0951
986.00,0.0941
985.00,0.0931
984.00,0.0922
983.00,0.0912
982.00,0.0902
981.00,0.0893
980.00,0.0885
979.00,0.0877
978.00,0.0868
977.00,0.0860
976.00,0.0851
975.00,0.0843
974.00,0.0835
973.00,0.0829
972.00,0.0823
971.00,0.0817
970.00,0.0811
969.00,0.0806
968.00,0.0801
967.00,0.0797
966.00,0.0791
965.00,0.0786
964.00,0.0779
963.00,0.0772
962.00,0.0766
961.00,0.0761
960.00,0.0757
959.00,0.0752
958.00,0.0746
957.00,0.0740
956.00,0.0737
955.00,0.0735
954.00,0.0734
953.00,0.0733
952.00,0.0730
951.00,0.0728
950.00,0.0725
949.00,0.0724
948.00,0.0724
947.00,0.0725
946.00,0.0727
945.00,0.0730
944.00,0.0733
943.00,0.0735
942.00,0.0737
941.00,0.0740
940.00,0.0743
939.00,0.0745
938.00,0.0745
937.00,0.0746
936.00,0.0746
935.00,0.0745
934.00,0.0742
933.00,0.0738
932.00,0.0734
931.00,0.0730
930.00,0.0726
929.00,0.0725
928.00,0.0724
927.00,0.0725
926.00,0.0726
925.00,0.0727
924.00,0.0730
923.00,0.0734
922.00,0.0739
921.00,0.0744
920.00,0.0751
919.00,0.0759
918.00,0.0769
917.00,0.0779
916.00,0.0788
915.00,0.0795
914.00,0.0799
913.00,0.0801
912.00,0.0802
911.00,0.0801
910.00,0.0797
909.00,0.0791
908.00,0.0783
907.00,0.0774
906.00,0.0764
905.00,0.0754
904.00,0.0745
903.00,0.0737
902.00,0.0730
901.00,0.0723
900.00,0.0715
899.00,0.0707
898.00,0.0698
897.00,0.0690
896.00,0.0681
895.00,0.0672
894.00,0.0665
893.00,0.0660
892.00,0.0656
891.00,0.0651
890.00,0.0645
889.00,0.0638
888.00,0.0632
887.00,0.0627
886.00,0.0622
885.00,0.0617
884.00,0.0613
883.00,0.0609
882.00,0.0605
881.00,0.0602
880.00,0.0599
879.00,0.0594
878.00,0.0589
877.00,0.0584
876.00,0.0580
875.00,0.0576
874.00,0.0573
873.00,0.0570
872.00,0.0567
871.00,0.0562
870.00,0.0558
869.00,0.0555
868.00,0.0552
867.00,0.0549
866.00,0.0546
865.00,0.0542
864.00,0.0540
863.00,0.0539
862.00,0.0538
861.00,0.0536
860.00,0.0533
859.00,0.0531
858.00,0.0528
857.00,0.0526
856.00,0.0525
855.00,0.0525
854.00,0.0524
853.00,0.0523
852.00,0.0521
851.00,0.0521
850.00,0.0521
849.00,0.0521
848.00,0.0521
847.00,0.0521
846.00,0.0522
845.00,0.0523
844.00,0.0524
843.00,0.0524
842.00,0.0524
841.00,0.0524
840.00,0.0526
839.00,0.0529
838.00,0.0532
837.00,0.0534
836.00,0.0535
835.00,0.0535
834.00,0.0535
833.00,0.0535
832.00,0.0537
831.00,0.0540
830.00,0.0543
829.00,0.0545
828.00,0.0545
827.00,0.0544
826.00,0.0543
825.00,0.0542
824.00,0.0544
823.00,0.0546
822.00,0.0549
821.00,0.0552
820.00,0.0556
819.00,0.0559
818.00,0.0560
817.00,0.0559
816.00,0.0558
815.00,0.0557
814.00,0.0558
813.00,0.0560
812.00,0.0564
811.00,0.0569
810.00,0.0575
809.00,0.0582
808.00,0.0588
807.00,0.0595
806.00,0.0603
805.00,0.0612
804.00,0.0621
803.00,0.0631
802.00,0.0641
801.00,0.0652
800.00,0.0661
799.00,0.0668
798.00,0.0671
797.00,0.0674
796.00,0.0678
795.00,0.0681
794.00,0.0681
793.00,0.0679
792.00,0.0676
791.00,0.0674
790.00,0.0674
789.00,0.0675
788.00,0.0676
787.00,0.0676
786.00,0.0676
785.00,0.0676
784.00,0.0678
783.00,0.0680
782.00,0.0681
781.00,0.0683
780.00,0.0684
779.00,0.0683
778.00,0.0682
777.00,0.0680
776.00,0.0678
775.00,0.0675
774.00,0.0672
773.00,0.0669
772.00,0.0668
771.00,0.0666
770.00,0.0664
769.00,0.0661
768.00,0.0658
767.00,0.0655
766.00,0.0652
765.00,0.0652
764.00,0.0653
763.00,0.0656
762.00,0.0658
761.00,0.0660
760.00,0.0662
759.00,0.0666
758.00,0.0671
757.00,0.0676
756.00,0.0679
755.00,0.0680
754.00,0.0680
753.00,0.0679
752.00,0.0680
751.00,0.0682
750.00,0.0683
749.00,0.0683
748.00,0.0683
747.00,0.0682
746.00,0.0680
745.00,0.0678
744.00,0.0677
743.00,0.0675
742.00,0.0672
741.00,0.0668
740.00,0.0665
739.00,0.0662
738.00,0.0661
737.00,0.0660
736.00,0.0659
735.00,0.0657
734.00,0.0655
733.00,0.0653
732.00,0.0653
731.00,0.0653
730.00,0.0652
729.00,0.0651
728.00,0.0649
727.00,0.0647
726.00,0.0645
725.00,0.0646
724.00,0.0648
723.00,0.0650
722.00,0.0651
721.00,0.0653
720.00,0.0654
719.00,0.0655
718.00,0.0654
717.00,0.0652
716.00,0.0651
715.00,0.0652
714.00,0.0655
713.00,0.0660
712.00,0.0666
711.00,0.0670
710.00,0.0672
709.00,0.0675
708.00,0.0680
707.00,0.0687
706.00,0.0696
705.00,0.0706
704.00,0.0714
703.00,0.0721
702.00,0.0727
701.00,0.0734
700.00,0.0743
699.00,0.0752
698.00,0.0761
697.00,0.0770
696.00,0.0779
695.00,0.0785
694.00,0.0788
693.00,0.0788
692.00,0.0789
691.00,0.0791
690.00,0.0795
689.00,0.0797
688.00,0.0797
687.00,0.0793
686.00,0.0789
685.00,0.0788
684.00,0.0789
683.00,0.0791
682.00,0.0792
681.00,0.0793
680.00,0.0795
679.00,0.0795
678.00,0.0794
677.00,0.0795
676.00,0.0799
675.00,0.0803
674.00,0.0805
673.00,0.0803
672.00,0.0798
671.00,0.0793
670.00,0.0791
669.00,0.0798
668.00,0.0814
667.00,0.0823
666.00,0.0818
665.00,0.0810
664.00,0.0803
663.00,0.0796
662.00,0.0789
661.00,0.0790
660.00,0.0800
659.00,0.0812
658.00,0.0821
657.00,0.0823
656.00,0.0822
655.00,0.0821
654.00,0.0819
653.00,0.0816
652.00,0.0816
651.00,0.0821
650.00,0.0821
