Created as New Dataset,
cm-1,A
4000.00,0.0012
3999.00,0.0012
3998.00,0.0012
3997.00,0.0012
3996.00,0.0012
3995.00,0.0013
3994.00,0.0013
3993.00,0.0013
3992.00,0.0013
3991.00,0.0013
3990.00,0.0012
3989.00,0.0012
3988.00,0.0012
3987.00,0.0012
3986.00,0.0012
3985.00,0.0012
3984.00,0.0012
3983.00,0.0012
3982.00,0.0012
3981.00,0.0012
3980.00,0.0013
3979.00,0.0013
3978.00,0.0013
3977.00,0.0013
3976.00,0.0013
3975.00,0.0014
3974.00,0.0014
3973.00,0.0013
3972.00,0.0013
3971.00,0.0013
3970.00,0.0012
3969.00,0.0012
3968.00,0.0012
3967.00,0.0011
3966.00,0.0011
3965.00,0.0012
3964.00,0.0012
3963.00,0.0012
3962.00,0.0013
3961.00,0.0013
3960.00,0.0014
3959.00,0.0014
3958.00,0.0014
3957.00,0.0013
3956.00,0.0013
3955.00,0.0013
3954.00,0.0013
3953.00,0.0013
3952.00,0.0014
3951.00,0.0015
3950.00,0.0015
3949.00,0.0015
3948.00,0.0015
3947.00,0.0016
3946.00,0.0017
3945.00,0.0017
3944.00,0.0017
3943.00,0.0016
3942.00,0.0015
3941.00,0.0015
3940.00,0.0015
3939.00,0.0015
3938.00,0.0014
3937.00,0.0013
3936.00,0.0014
3935.00,0.0015
3934.00,0.0016
3933.00,0.0016
3932.00,0.0016
3931.00,0.0016
3930.00,0.0016
3929.00,0.0017
3928.00,0.0017
3927.00,0.0017
3926.00,0.0017
3925.00,0.0016
3924.00,0.0016
3923.00,0.0017
3922.00,0.0018
3921.00,0.0018
3920.00,0.0017
3919.00,0.0017
3918.00,0.0017
3917.00,0.0016
3916.00,0.0016
3915.00,0.0015
3914.00,0.0015
3913.00,0.0014
3912.00,0.0013
3911.00,0.0012
3910.00,0.0013
3909.00,0.0014
3908.00,0.0015
3907.00,0.0017
3906.00,0.0018
3905.00,0.0019
3904.00,0.0020
3903.00,0.0022
3902.00,0.0025
3901.00,0.0026
3900.00,0.0025
3899.00,0.0022
3898.00,0.0020
3897.00,0.0019
3896.00,0.0019
3895.00,0.0019
3894.00,0.0019
3893.00,0.0019
3892.00,0.0017
3891.00,0.0016
3890.00,0.0016
3889.00,0.0019
3888.00,0.0021
3887.00,0.0021
3886.00,0.0019
3885.00,0.0018
3884.00,0.0021
3883.00,0.0025
3882.00,0.0026
3881.00,0.0023
3880.00,0.0020
3879.00,0.0019
3878.00,0.0020
3877.00,0.0022
3876.00,0.0022
3875.00,0.0019
3874.00,0.0018
3873.00,0.0020
3872.00,0.0023
3871.00,0.0023
3870.00,0.0021
3869.00,0.0020
3868.00,0.0023
3867.00,0.0025
3866.00,0.0025
3865.00,0.0022
3864.00,0.0021
3863.00,0.0021
3862.00,0.0021
3861.00,0.0020
3860.00,0.0019
3859.00,0.0017
3858.00,0.0017
3857.00,0.0019
3856.00,0.0022
3855.00,0.0022
3854.00,0.0021
3853.00,0.0021
3852.00,0.0023
3851.00,0.0024
3850.00,0.0023
3849.00,0.0020
3848.00,0.0017
3847.00,0.0016
3846.00,0.0016
3845.00,0.0016
3844.00,0.0017
3843.00,0.0017
3842.00,0.0019
3841.00,0.0022
3840.00,0.0023
3839.00,0.0023
3838.00,0.0023
3837.00,0.0023
3836.00,0.0023
3835.00,0.0023
3834.00,0.0022
3833.00,0.0021
3832.00,0.0019
3831.00,0.0018
3830.00,0.0018
3829.00,0.0019
3828.00,0.0019
3827.00,0.0017
3826.00,0.0015
3825.00,0.0017
3824.00,0.0020
3823.00,0.0022
3822.00,0.0020
3821.00,0.0018
3820.00,0.0019
3819.00,0.0022
3818.00,0.0024
3817.00,0.0022
3816.00,0.0017
3815.00,0.0016
3814.00,0.0016
3813.00,0.0017
3812.00,0.0015
3811.00,0.0013
3810.00,0.0013
3809.00,0.0014
3808.00,0.0013
3807.00,0.0012
3806.00,0.0013
3805.00,0.0016
3804.00,0.0021
3803.00,0.0022
3802.00,0.0019
3801.00,0.0018
3800.00,0.0019
3799.00,0.0022
3798.00,0.0022
3797.00,0.0019
3796.00,0.0016
3795.00,0.0015
3794.00,0.0015
3793.00,0.0015
3792.00,0.0014
3791.00,0.0013
3790.00,0.0012
3789.00,0.0012
3788.00,0.0013
3787.00,0.0013
3786.00,0.0013
3785.00,0.0013
3784.00,0.0013
3783.00,0.0015
3782.00,0.0017
3781.00,0.0017
3780.00,0.0015
3779.00,0.0014
3778.00,0.0013
3777.00,0.0014
3776.00,0.0014
3775.00,0.0013
3774.00,0.0012
3773.00,0.0013
3772.00,0.0014
3771.00,0.0014
3770.00,0.0013
3769.00,0.0015
3768.00,0.0017
3767.00,0.0018
3766.00,0.0017
3765.00,0.0016
3764.00,0.0015
3763.00,0.0017
3762.00,0.0019
3761.00,0.0019
3760.00,0.0018
3759.00,0.0017
3758.00,0.0017
3757.00,0.0017
3756.00,0.0017
3755.00,0.0018
3754.00,0.0018
3753.00,0.0017
3752.00,0.0016
3751.00,0.0018
3750.00,0.0020
3749.00,0.0022
3748.00,0.0025
3747.00,0.0028
3746.00,0.0028
3745.00,0.0025
3744.00,0.0022
3743.00,0.0022
3742.00,0.0024
3741.00,0.0024
3740.00,0.0023
3739.00,0.0022
3738.00,0.0024
3737.00,0.0025
3736.00,0.0027
3735.00,0.0029
3734.00,0.0030
3733.00,0.0029
3732.00,0.0026
3731.00,0.0023
3730.00,0.0021
3729.00,0.0022
3728.00,0.0021
3727.00,0.0021
3726.00,0.0022
3725.00,0.0024
3724.00,0.0025
3723.00,0.0026
3722.00,0.0025
3721.00,0.0025
3720.00,0.0025
3719.00,0.0025
3718.00,0.0024
3717.00,0.0024
3716.00,0.0026
3715.00,0.0029
3714.00,0.0032
3713.00,0.0034
3712.00,0.0036
3711.00,0.0040
3710.00,0.0044
3709.00,0.0046
3708.00,0.0046
3707.00,0.0045
3706.00,0.0046
3705.00,0.0047
3704.00,0.0049
3703.00,0.0052
3702.00,0.0055
3701.00,0.0058
3700.00,0.0060
3699.00,0.0062
3698.00,0.0063
3697.00,0.0062
3696.00,0.0062
3695.00,0.0063
3694.00,0.0064
3693.00,0.0065
3692.00,0.0066
3691.00,0.0066
3690.00,0.0067
3689.00,0.0067
3688.00,0.0066
3687.00,0.0065
3686.00,0.0063
3685.00,0.0060
3684.00,0.0057
3683.00,0.0055
3682.00,0.0053
3681.00,0.0052
3680.00,0.0050
3679.00,0.0051
3678.00,0.0055
3677.00,0.0057
3676.00,0.0058
3675.00,0.0059
3674.00,0.0062
3673.00,0.0065
3672.00,0.0065
3671.00,0.0063
3670.00,0.0061
3669.00,0.0062
3668.00,0.0064
3667.00,0.0064
3666.00,0.0063
3665.00,0.0061
3664.00,0.0060
3663.00,0.0060
3662.00,0.0060
3661.00,0.0061
3660.00,0.0062
3659.00,0.0065
3658.00,0.0067
3657.00,0.0070
3656.00,0.0072
3655.00,0.0075
3654.00,0.0079
3653.00,0.0082
3652.00,0.0083
3651.00,0.0083
3650.00,0.0086
3649.00,0.0093
3648.00,0.0099
3647.00,0.0099
3646.00,0.0096
3645.00,0.0092
3644.00,0.0088
3643.00,0.0085
3642.00,0.0083
3641.00,0.0082
3640.00,0.0081
3639.00,0.0081
3638.00,0.0081
3637.00,0.0082
3636.00,0.0083
3635.00,0.0083
3634.00,0.0082
3633.00,0.0083
3632.00,0.0085
3631.00,0.0089
3630.00,0.0093
3629.00,0.0097
3628.00,0.0101
3627.00,0.0104
3626.00,0.0105
3625.00,0.0104
3624.00,0.0103
3623.00,0.0104
3622.00,0.0107
3621.00,0.0111
3620.00,0.0113
3619.00,0.0115
3618.00,0.0116
3617.00,0.0115
3616.00,0.0113
3615.00,0.0110
3614.00,0.0106
3613.00,0.0104
3612.00,0.0104
3611.00,0.0106
3610.00,0.0107
3609.00,0.0108
3608.00,0.0107
3607.00,0.0107
3606.00,0.0106
3605.00,0.0105
3604.00,0.0104
3603.00,0.0103
3602.00,0.0102
3601.00,0.0102
3600.00,0.0103
3599.00,0.0104
3598.00,0.0104
3597.00,0.0105
3596.00,0.0106
3595.00,0.0106
3594.00,0.0106
3593.00,0.0106
3592.00,0.0105
3591.00,0.0106
3590.00,0.0107
3589.00,0.0109
3588.00,0.0111
3587.00,0.0114
3586.00,0.0115
3585.00,0.0115
3584.00,0.0113
3583.00,0.0111
3582.00,0.0110
3581.00,0.0109
3580.00,0.0109
3579.00,0.0109
3578.00,0.0110
3577.00,0.0109
3576.00,0.0109
3575.00,0.0108
3574.00,0.0108
3573.00,0.0108
3572.00,0.0109
3571.00,0.0111
3570.00,0.0113
3569.00,0.0116
3568.00,0.0120
3567.00,0.0124
3566.00,0.0127
3565.00,0.0127
3564.00,0.0126
3563.00,0.0123
3562.00,0.0121
3561.00,0.0120
3560.00,0.0119
3559.00,0.0118
3558.00,0.0118
3557.00,0.0117
3556.00,0.0117
3555.00,0.0117
3554.00,0.0118
3553.00,0.0119
3552.00,0.0120
3551.00,0.0121
3550.00,0.0122
3549.00,0.0123
3548.00,0.0124
3547.00,0.0125
3546.00,0.0126
3545.00,0.0127
3544.00,0.0127
3543.00,0.0126
3542.00,0.0125
3541.00,0.0124
3540.00,0.0124
3539.00,0.0124
3538.00,0.0125
3537.00,0.0125
3536.00,0.0126
3535.00,0.0126
3534.00,0.0126
3533.00,0.0125
3532.00,0.0126
3531.00,0.0126
3530.00,0.0127
3529.00,0.0129
3528.00,0.0130
3527.00,0.0131
3526.00,0.0133
3525.00,0.0133
3524.00,0.0134
3523.00,0.0134
3522.00,0.0134
3521.00,0.0133
3520.00,0.0132
3519.00,0.0132
3518.00,0.0132
3517.00,0.0133
3516.00,0.0134
3515.00,0.0135
3514.00,0.0135
3513.00,0.0135
3512.00,0.0135
3511.00,0.0136
3510.00,0.0137
3509.00,0.0138
3508.00,0.0138
3507.00,0.0139
3506.00,0.0139
3505.00,0.0139
3504.00,0.0139
3503.00,0.0141
3502.00,0.0142
3501.00,0.0142
3500.00,0.0143
3499.00,0.0142
3498.00,0.0142
3497.00,0.0142
3496.00,0.0142
3495.00,0.0142
3494.00,0.0142
3493.00,0.0142
3492.00,0.0142
3491.00,0.0142
3490.00,0.0141
3489.00,0.0142
3488.00,0.0142
3487.00,0.0143
3486.00,0.0144
3485.00,0.0145
3484.00,0.0146
3483.00,0.0147
3482.00,0.0148
3481.00,0.0148
3480.00,0.0148
3479.00,0.0148
3478.00,0.0148
3477.00,0.0149
3476.00,0.0149
3475.00,0.0149
3474.00,0.0149
3473.00,0.0150
3472.00,0.0150
3471.00,0.0150
3470.00,0.0150
3469.00,0.0150
3468.00,0.0150
3467.00,0.0151
3466.00,0.0152
3465.00,0.0153
3464.00,0.0153
3463.00,0.0154
3462.00,0.0154
3461.00,0.0153
3460.00,0.0153
3459.00,0.0153
3458.00,0.0153
3457.00,0.0153
3456.00,0.0154
3455.00,0.0155
3454.00,0.0156
3453.00,0.0156
3452.00,0.0157
3451.00,0.0158
3450.00,0.0158
3449.00,0.0158
3448.00,0.0158
3447.00,0.0159
3446.00,0.0159
3445.00,0.0159
3444.00,0.0160
3443.00,0.0160
3442.00,0.0160
3441.00,0.0160
3440.00,0.0160
3439.00,0.0160
3438.00,0.0159
3437.00,0.0159
3436.00,0.0159
3435.00,0.0160
3434.00,0.0160
3433.00,0.0160
3432.00,0.0161
3431.00,0.0161
3430.00,0.0161
3429.00,0.0161
3428.00,0.0161
3427.00,0.0162
3426.00,0.0162
3425.00,0.0162
3424.00,0.0162
3423.00,0.0163
3422.00,0.0163
3421.00,0.0164
3420.00,0.0165
3419.00,0.0166
3418.00,0.0166
3417.00,0.0165
3416.00,0.0165
3415.00,0.0165
3414.00,0.0165
3413.00,0.0166
3412.00,0.0167
3411.00,0.0167
3410.00,0.0167
3409.00,0.0167
3408.00,0.0168
3407.00,0.0168
3406.00,0.0168
3405.00,0.0169
3404.00,0.0169
3403.00,0.0170
3402.00,0.0170
3401.00,0.0170
3400.00,0.0169
3399.00,0.0169
3398.00,0.0169
3397.00,0.0169
3396.00,0.0170
3395.00,0.0170
3394.00,0.0170
3393.00,0.0171
3392.00,0.0171
3391.00,0.0171
3390.00,0.0171
3389.00,0.0171
3388.00,0.0170
3387.00,0.0170
3386.00,0.0171
3385.00,0.0172
3384.00,0.0172
3383.00,0.0172
3382.00,0.0171
3381.00,0.0171
3380.00,0.0171
3379.00,0.0171
3378.00,0.0172
3377.00,0.0172
3376.00,0.0173
3375.00,0.0173
3374.00,0.0174
3373.00,0.0174
3372.00,0.0174
3371.00,0.0174
3370.00,0.0173
3369.00,0.0173
3368.00,0.0174
3367.00,0.0174
3366.00,0.0175
3365.00,0.0175
3364.00,0.0176
3363.00,0.0176
3362.00,0.0176
3361.00,0.0176
3360.00,0.0176
3359.00,0.0176
3358.00,0.0176
3357.00,0.0176
3356.00,0.0176
3355.00,0.0176
3354.00,0.0176
3353.00,0.0176
3352.00,0.0176
3351.00,0.0176
3350.00,0.0176
3349.00,0.0175
3348.00,0.0175
3347.00,0.0175
3346.00,0.0175
3345.00,0.0175
3344.00,0.0176
3343.00,0.0176
3342.00,0.0177
3341.00,0.0176
3340.00,0.0176
3339.00,0.0176
3338.00,0.0177
3337.00,0.0177
3336.00,0.0178
3335.00,0.0178
3334.00,0.0178
3333.00,0.0178
3332.00,0.0177
3331.00,0.0177
3330.00,0.0177
3329.00,0.0177
3328.00,0.0177
3327.00,0.0177
3326.00,0.0177
3325.00,0.0177
3324.00,0.0177
3323.00,0.0178
3322.00,0.0178
3321.00,0.0177
3320.00,0.0177
3319.00,0.0177
3318.00,0.0177
3317.00,0.0177
3316.00,0.0177
3315.00,0.0177
3314.00,0.0177
3313.00,0.0177
3312.00,0.0177
3311.00,0.0177
3310.00,0.0178
3309.00,0.0178
3308.00,0.0179
3307.00,0.0179
3306.00,0.0179
3305.00,0.0179
3304.00,0.0180
3303.00,0.0180
3302.00,0.0179
3301.00,0.0178
3300.00,0.0178
3299.00,0.0177
3298.00,0.0177
3297.00,0.0178
3296.00,0.0178
3295.00,0.0178
3294.00,0.0178
3293.00,0.0178
3292.00,0.0178
3291.00,0.0178
3290.00,0.0178
3289.00,0.0178
3288.00,0.0178
3287.00,0.0179
3286.00,0.0179
3285.00,0.0180
3284.00,0.0180
3283.00,0.0179
3282.00,0.0179
3281.00,0.0178
3280.00,0.0178
3279.00,0.0178
3278.00,0.0179
3277.00,0.0179
3276.00,0.0179
3275.00,0.0180
3274.00,0.0180
3273.00,0.0180
3272.00,0.0180
3271.00,0.0180
3270.00,0.0179
3269.00,0.0179
3268.00,0.0179
3267.00,0.0179
3266.00,0.0179
3265.00,0.0179
3264.00,0.0179
3263.00,0.0179
3262.00,0.0179
3261.00,0.0179
3260.00,0.0179
3259.00,0.0179
3258.00,0.0179
3257.00,0.0179
3256.00,0.0180
3255.00,0.0180
3254.00,0.0179
3253.00,0.0179
3252.00,0.0179
3251.00,0.0178
3250.00,0.0179
3249.00,0.0179
3248.00,0.0180
3247.00,0.0180
3246.00,0.0181
3245.00,0.0181
3244.00,0.0181
3243.00,0.0181
3242.00,0.0180
3241.00,0.0180
3240.00,0.0180
3239.00,0.0180
3238.00,0.0181
3237.00,0.0181
3236.00,0.0181
3235.00,0.0181
3234.00,0.0181
3233.00,0.0181
3232.00,0.0182
3231.00,0.0182
3230.00,0.0182
3229.00,0.0182
3228.00,0.0182
3227.00,0.0182
3226.00,0.0181
3225.00,0.0181
3224.00,0.0181
3223.00,0.0181
3222.00,0.0181
3221.00,0.0181
3220.00,0.0181
3219.00,0.0181
3218.00,0.0181
3217.00,0.0180
3216.00,0.0180
3215.00,0.0180
3214.00,0.0180
3213.00,0.0180
3212.00,0.0180
3211.00,0.0181
3210.00,0.0181
3209.00,0.0181
3208.00,0.0180
3207.00,0.0180
3206.00,0.0180
3205.00,0.0180
3204.00,0.0180
3203.00,0.0180
3202.00,0.0180
3201.00,0.0180
3200.00,0.0181
3199.00,0.0181
3198.00,0.0181
3197.00,0.0180
3196.00,0.0180
3195.00,0.0179
3194.00,0.0179
3193.00,0.0179
3192.00,0.0178
3191.00,0.0178
3190.00,0.0178
3189.00,0.0178
3188.00,0.0178
3187.00,0.0178
3186.00,0.0178
3185.00,0.0179
3184.00,0.0179
3183.00,0.0179
3182.00,0.0179
3181.00,0.0179
3180.00,0.0179
3179.00,0.0178
3178.00,0.0178
3177.00,0.0178
3176.00,0.0178
3175.00,0.0178
3174.00,0.0178
3173.00,0.0178
3172.00,0.0178
3171.00,0.0178
3170.00,0.0178
3169.00,0.0177
3168.00,0.0177
3167.00,0.0177
3166.00,0.0176
3165.00,0.0176
3164.00,0.0176
3163.00,0.0176
3162.00,0.0176
3161.00,0.0176
3160.00,0.0176
3159.00,0.0176
3158.00,0.0176
3157.00,0.0176
3156.00,0.0175
3155.00,0.0175
3154.00,0.0175
3153.00,0.0175
3152.00,0.0174
3151.00,0.0174
3150.00,0.0174
3149.00,0.0174
3148.00,0.0174
3147.00,0.0174
3146.00,0.0174
3145.00,0.0174
3144.00,0.0174
3143.00,0.0174
3142.00,0.0174
3141.00,0.0174
3140.00,0.0174
3139.00,0.0173
3138.00,0.0173
3137.00,0.0173
3136.00,0.0173
3135.00,0.0173
3134.00,0.0172
3133.00,0.0172
3132.00,0.0172
3131.00,0.0172
3130.00,0.0172
3129.00,0.0172
3128.00,0.0172
3127.00,0.0172
3126.00,0.0172
3125.00,0.0172
3124.00,0.0171
3123.00,0.0171
3122.00,0.0171
3121.00,0.0170
3120.00,0.0170
3119.00,0.0170
3118.00,0.0170
3117.00,0.0170
3116.00,0.0170
3115.00,0.0170
3114.00,0.0170
3113.00,0.0170
3112.00,0.0170
3111.00,0.0169
3110.00,0.0168
3109.00,0.0168
3108.00,0.0168
3107.00,0.0168
3106.00,0.0168
3105.00,0.0168
3104.00,0.0168
3103.00,0.0168
3102.00,0.0168
3101.00,0.0168
3100.00,0.0168
3099.00,0.0168
3098.00,0.0168
3097.00,0.0168
3096.00,0.0167
3095.00,0.0167
3094.00,0.0167
3093.00,0.0166
3092.00,0.0166
3091.00,0.0166
3090.00,0.0166
3089.00,0.0166
3088.00,0.0166
3087.00,0.0166
3086.00,0.0166
3085.00,0.0165
3084.00,0.0165
3083.00,0.0165
3082.00,0.0165
3081.00,0.0165
3080.00,0.0165
3079.00,0.0165
3078.00,0.0164
3077.00,0.0164
3076.00,0.0164
3075.00,0.0164
3074.00,0.0164
3073.00,0.0164
3072.00,0.0164
3071.00,0.0164
3070.00,0.0163
3069.00,0.0163
3068.00,0.0163
3067.00,0.0163
3066.00,0.0163
3065.00,0.0163
3064.00,0.0163
3063.00,0.0163
3062.00,0.0162
3061.00,0.0162
3060.00,0.0161
3059.00,0.0161
3058.00,0.0161
3057.00,0.0161
3056.00,0.0161
3055.00,0.0161
3054.00,0.0161
3053.00,0.0161
3052.00,0.0161
3051.00,0.0160
3050.00,0.0159
3049.00,0.0159
3048.00,0.0158
3047.00,0.0158
3046.00,0.0158
3045.00,0.0158
3044.00,0.0158
3043.00,0.0158
3042.00,0.0157
3041.00,0.0157
3040.00,0.0157
3039.00,0.0157
3038.00,0.0157
3037.00,0.0156
3036.00,0.0156
3035.00,0.0156
3034.00,0.0156
3033.00,0.0156
3032.00,0.0156
3031.00,0.0156
3030.00,0.0155
3029.00,0.0155
3028.00,0.0154
3027.00,0.0154
3026.00,0.0153
3025.00,0.0153
3024.00,0.0153
3023.00,0.0153
3022.00,0.0152
3021.00,0.0152
3020.00,0.0152
3019.00,0.0152
3018.00,0.0151
3017.00,0.0151
3016.00,0.0151
3015.00,0.0151
3014.00,0.0151
3013.00,0.0151
3012.00,0.0151
3011.00,0.0151
3010.00,0.0151
3009.00,0.0150
3008.00,0.0150
3007.00,0.0149
3006.00,0.0148
3005.00,0.0148
3004.00,0.0148
3003.00,0.0147
3002.00,0.0147
3001.00,0.0147
3000.00,0.0146
2999.00,0.0146
2998.00,0.0145
2997.00,0.0145
2996.00,0.0145
2995.00,0.0145
2994.00,0.0145
2993.00,0.0144
2992.00,0.0144
2991.00,0.0143
2990.00,0.0142
2989.00,0.0142
2988.00,0.0142
2987.00,0.0141
2986.00,0.0141
2985.00,0.0141
2984.00,0.0141
2983.00,0.0140
2982.00,0.0139
2981.00,0.0139
2980.00,0.0138
2979.00,0.0138
2978.00,0.0139
2977.00,0.0139
2976.00,0.0139
2975.00,0.0138
2974.00,0.0138
2973.00,0.0137
2972.00,0.0137
2971.00,0.0136
2970.00,0.0135
2969.00,0.0135
2968.00,0.0134
2967.00,0.0134
2966.00,0.0134
2965.00,0.0134
2964.00,0.0133
2963.00,0.0133
2962.00,0.0133
2961.00,0.0133
2960.00,0.0132
2959.00,0.0132
2958.00,0.0132
2957.00,0.0132
2956.00,0.0132
2955.00,0.0132
2954.00,0.0132
2953.00,0.0132
2952.00,0.0133
2951.00,0.0133
2950.00,0.0133
2949.00,0.0133
2948.00,0.0133
2947.00,0.0133
2946.00,0.0133
2945.00,0.0133
2944.00,0.0134
2943.00,0.0133
2942.00,0.0133
2941.00,0.0132
2940.00,0.0132
2939.00,0.0131
2938.00,0.0130
2937.00,0.0129
2936.00,0.0128
2935.00,0.0127
2934.00,0.0126
2933.00,0.0125
2932.00,0.0125
2931.00,0.0124
2930.00,0.0123
2929.00,0.0121
2928.00,0.0120
2927.00,0.0119
2926.00,0.0118
2925.00,0.0117
2924.00,0.0117
2923.00,0.0117
2922.00,0.0117
2921.00,0.0117
2920.00,0.0117
2919.00,0.0116
2918.00,0.0115
2917.00,0.0115
2916.00,0.0116
2915.00,0.0117
2914.00,0.0119
2913.00,0.0121
2912.00,0.0122
2911.00,0.0123
2910.00,0.0123
2909.00,0.0124
2908.00,0.0124
2907.00,0.0125
2906.00,0.0125
2905.00,0.0124
2904.00,0.0124
2903.00,0.0124
2902.00,0.0124
2901.00,0.0125
2900.00,0.0125
2899.00,0.0124
2898.00,0.0124
2897.00,0.0124
2896.00,0.0124
2895.00,0.0124
2894.00,0.0124
2893.00,0.0124
2892.00,0.0124
2891.00,0.0124
2890.00,0.0124
2889.00,0.0124
2888.00,0.0124
2887.00,0.0124
2886.00,0.0124
2885.00,0.0124
2884.00,0.0124
2883.00,0.0124
2882.00,0.0124
2881.00,0.0124
2880.00,0.0124
2879.00,0.0124
2878.00,0.0123
2877.00,0.0123
2876.00,0.0122
2875.00,0.0121
2874.00,0.0120
2873.00,0.0120
2872.00,0.0119
2871.00,0.0119
2870.00,0.0119
2869.00,0.0119
2868.00,0.0119
2867.00,0.0118
2866.00,0.0118
2865.00,0.0118
2864.00,0.0118
2863.00,0.0118
2862.00,0.0117
2861.00,0.0116
2860.00,0.0116
2859.00,0.0115
2858.00,0.0115
2857.00,0.0114
2856.00,0.0114
2855.00,0.0113
2854.00,0.0112
2853.00,0.0112
2852.00,0.0112
2851.00,0.0111
2850.00,0.0111
2849.00,0.0111
2848.00,0.0111
2847.00,0.0112
2846.00,0.0113
2845.00,0.0114
2844.00,0.0115
2843.00,0.0116
2842.00,0.0116
2841.00,0.0116
2840.00,0.0117
2839.00,0.0117
2838.00,0.0117
2837.00,0.0117
2836.00,0.0117
2835.00,0.0117
2834.00,0.0116
2833.00,0.0116
2832.00,0.0116
2831.00,0.0116
2830.00,0.0116
2829.00,0.0116
2828.00,0.0116
2827.00,0.0116
2826.00,0.0115
2825.00,0.0115
2824.00,0.0115
2823.00,0.0114
2822.00,0.0114
2821.00,0.0114
2820.00,0.0114
2819.00,0.0113
2818.00,0.0113
2817.00,0.0113
2816.00,0.0113
2815.00,0.0112
2814.00,0.0112
2813.00,0.0112
2812.00,0.0112
2811.00,0.0112
2810.00,0.0111
2809.00,0.0111
2808.00,0.0111
2807.00,0.0111
2806.00,0.0110
2805.00,0.0110
2804.00,0.0110
2803.00,0.0110
2802.00,0.0110
2801.00,0.0110
2800.00,0.0110
2799.00,0.0110
2798.00,0.0110
2797.00,0.0110
2796.00,0.0109
2795.00,0.0109
2794.00,0.0109
2793.00,0.0108
2792.00,0.0108
2791.00,0.0108
2790.00,0.0108
2789.00,0.0108
2788.00,0.0108
2787.00,0.0108
2786.00,0.0107
2785.00,0.0107
2784.00,0.0107
2783.00,0.0107
2782.00,0.0107
2781.00,0.0107
2780.00,0.0106
2779.00,0.0106
2778.00,0.0105
2777.00,0.0106
2776.00,0.0106
2775.00,0.0106
2774.00,0.0105
2773.00,0.0105
2772.00,0.0104
2771.00,0.0104
2770.00,0.0103
2769.00,0.0103
2768.00,0.0103
2767.00,0.0103
2766.00,0.0103
2765.00,0.0103
2764.00,0.0103
2763.00,0.0103
2762.00,0.0103
2761.00,0.0103
2760.00,0.0102
2759.00,0.0102
2758.00,0.0102
2757.00,0.0102
2756.00,0.0102
2755.00,0.0102
2754.00,0.0101
2753.00,0.0101
2752.00,0.0101
2751.00,0.0101
2750.00,0.0101
2749.00,0.0101
2748.00,0.0101
2747.00,0.0101
2746.00,0.0101
2745.00,0.0100
2744.00,0.0100
2743.00,0.0100
2742.00,0.0100
2741.00,0.0100
2740.00,0.0100
2739.00,0.0100
2738.00,0.0099
2737.00,0.0099
2736.00,0.0098
2735.00,0.0098
2734.00,0.0098
2733.00,0.0098
2732.00,0.0098
2731.00,0.0098
2730.00,0.0097
2729.00,0.0097
2728.00,0.0097
2727.00,0.0097
2726.00,0.0097
2725.00,0.0097
2724.00,0.0097
2723.00,0.0097
2722.00,0.0097
2721.00,0.0097
2720.00,0.0096
2719.00,0.0096
2718.00,0.0096
2717.00,0.0096
2716.00,0.0096
2715.00,0.0095
2714.00,0.0095
2713.00,0.0095
2712.00,0.0095
2711.00,0.0096
2710.00,0.0096
2709.00,0.0096
2708.00,0.0095
2707.00,0.0095
2706.00,0.0094
2705.00,0.0094
2704.00,0.0094
2703.00,0.0094
2702.00,0.0094
2701.00,0.0093
2700.00,0.0093
2699.00,0.0093
2698.00,0.0092
2697.00,0.0092
2696.00,0.0092
2695.00,0.0092
2694.00,0.0092
2693.00,0.0092
2692.00,0.0092
2691.00,0.0092
2690.00,0.0092
2689.00,0.0092
2688.00,0.0092
2687.00,0.0092
2686.00,0.0091
2685.00,0.0091
2684.00,0.0091
2683.00,0.0091
2682.00,0.0091
2681.00,0.0091
2680.00,0.0091
2679.00,0.0091
2678.00,0.0091
2677.00,0.0091
2676.00,0.0091
2675.00,0.0090
2674.00,0.0090
2673.00,0.0090
2672.00,0.0090
2671.00,0.0089
2670.00,0.0089
2669.00,0.0089
2668.00,0.0089
2667.00,0.0089
2666.00,0.0089
2665.00,0.0089
2664.00,0.0089
2663.00,0.0089
2662.00,0.0089
2661.00,0.0089
2660.00,0.0089
2659.00,0.0089
2658.00,0.0089
2657.00,0.0089
2656.00,0.0089
2655.00,0.0089
2654.00,0.0089
2653.00,0.0089
2652.00,0.0089
2651.00,0.0089
2650.00,0.0089
2649.00,0.0089
2648.00,0.0089
2647.00,0.0089
2646.00,0.0089
2645.00,0.0089
2644.00,0.0089
2643.00,0.0090
2642.00,0.0090
2641.00,0.0090
2640.00,0.0090
2639.00,0.0089
2638.00,0.0088
2637.00,0.0088
2636.00,0.0088
2635.00,0.0088
2634.00,0.0088
2633.00,0.0087
2632.00,0.0087
2631.00,0.0087
2630.00,0.0087
2629.00,0.0087
2628.00,0.0087
2627.00,0.0088
2626.00,0.0088
2625.00,0.0088
2624.00,0.0088
2623.00,0.0087
2622.00,0.0087
2621.00,0.0086
2620.00,0.0086
2619.00,0.0086
2618.00,0.0087
2617.00,0.0087
2616.00,0.0087
2615.00,0.0087
2614.00,0.0087
2613.00,0.0087
2612.00,0.0086
2611.00,0.0086
2610.00,0.0086
2609.00,0.0085
2608.00,0.0086
2607.00,0.0086
2606.00,0.0086
2605.00,0.0086
2604.00,0.0086
2603.00,0.0086
2602.00,0.0086
2601.00,0.0087
2600.00,0.0087
2599.00,0.0087
2598.00,0.0086
2597.00,0.0086
2596.00,0.0086
2595.00,0.0085
2594.00,0.0085
2593.00,0.0086
2592.00,0.0086
2591.00,0.0086
2590.00,0.0086
2589.00,0.0086
2588.00,0.0085
2587.00,0.0085
2586.00,0.0084
2585.00,0.0084
2584.00,0.0085
2583.00,0.0085
2582.00,0.0085
2581.00,0.0084
2580.00,0.0084
2579.00,0.0084
2578.00,0.0084
2577.00,0.0084
2576.00,0.0085
2575.00,0.0085
2574.00,0.0084
2573.00,0.0084
2572.00,0.0084
2571.00,0.0084
2570.00,0.0084
2569.00,0.0084
2568.00,0.0084
2567.00,0.0084
2566.00,0.0084
2565.00,0.0084
2564.00,0.0084
2563.00,0.0084
2562.00,0.0084
2561.00,0.0084
2560.00,0.0083
2559.00,0.0083
2558.00,0.0083
2557.00,0.0083
2556.00,0.0084
2555.00,0.0084
2554.00,0.0084
2553.00,0.0085
2552.00,0.0085
2551.00,0.0084
2550.00,0.0084
2549.00,0.0084
2548.00,0.0083
2547.00,0.0082
2546.00,0.0082
2545.00,0.0081
2544.00,0.0081
2543.00,0.0082
2542.00,0.0082
2541.00,0.0083
2540.00,0.0083
2539.00,0.0083
2538.00,0.0083
2537.00,0.0083
2536.00,0.0083
2535.00,0.0083
2534.00,0.0083
2533.00,0.0082
2532.00,0.0082
2531.00,0.0082
2530.00,0.0082
2529.00,0.0082
2528.00,0.0083
2527.00,0.0083
2526.00,0.0083
2525.00,0.0083
2524.00,0.0083
2523.00,0.0082
2522.00,0.0082
2521.00,0.0082
2520.00,0.0082
2519.00,0.0081
2518.00,0.0081
2517.00,0.0081
2516.00,0.0080
2515.00,0.0081
2514.00,0.0081
2513.00,0.0082
2512.00,0.0082
2511.00,0.0082
2510.00,0.0081
2509.00,0.0080
2508.00,0.0079
2507.00,0.0079
2506.00,0.0079
2505.00,0.0080
2504.00,0.0080
2503.00,0.0081
2502.00,0.0081
2501.00,0.0081
2500.00,0.0080
2499.00,0.0080
2498.00,0.0080
2497.00,0.0079
2496.00,0.0079
2495.00,0.0079
2494.00,0.0079
2493.00,0.0079
2492.00,0.0078
2491.00,0.0079
2490.00,0.0079
2489.00,0.0079
2488.00,0.0079
2487.00,0.0079
2486.00,0.0078
2485.00,0.0078
2484.00,0.0078
2483.00,0.0078
2482.00,0.0078
2481.00,0.0079
2480.00,0.0079
2479.00,0.0079
2478.00,0.0079
2477.00,0.0078
2476.00,0.0078
2475.00,0.0078
2474.00,0.0078
2473.00,0.0078
2472.00,0.0078
2471.00,0.0077
2470.00,0.0077
2469.00,0.0077
2468.00,0.0077
2467.00,0.0077
2466.00,0.0076
2465.00,0.0076
2464.00,0.0076
2463.00,0.0076
2462.00,0.0075
2461.00,0.0075
2460.00,0.0076
2459.00,0.0077
2458.00,0.0077
2457.00,0.0077
2456.00,0.0077
2455.00,0.0076
2454.00,0.0076
2453.00,0.0076
2452.00,0.0076
2451.00,0.0076
2450.00,0.0076
2449.00,0.0076
2448.00,0.0076
2447.00,0.0075
2446.00,0.0075
2445.00,0.0074
2444.00,0.0074
2443.00,0.0074
2442.00,0.0074
2441.00,0.0074
2440.00,0.0074
2439.00,0.0073
2438.00,0.0073
2437.00,0.0073
2436.00,0.0073
2435.00,0.0072
2434.00,0.0072
2433.00,0.0072
2432.00,0.0073
2431.00,0.0073
2430.00,0.0073
2429.00,0.0074
2428.00,0.0074
2427.00,0.0074
2426.00,0.0074
2425.00,0.0073
2424.00,0.0073
2423.00,0.0072
2422.00,0.0071
2421.00,0.0071
2420.00,0.0071
2419.00,0.0071
2418.00,0.0071
2417.00,0.0071
2416.00,0.0071
2415.00,0.0071
2414.00,0.0071
2413.00,0.0072
2412.00,0.0072
2411.00,0.0072
2410.00,0.0071
2409.00,0.0071
2408.00,0.0070
2407.00,0.0070
2406.00,0.0070
2405.00,0.0070
2404.00,0.0070
2403.00,0.0070
2402.00,0.0070
2401.00,0.0070
2400.00,0.0069
2399.00,0.0069
2398.00,0.0069
2397.00,0.0069
2396.00,0.0069
2395.00,0.0069
2394.00,0.0069
2393.00,0.0069
2392.00,0.0069
2391.00,0.0069
2390.00,0.0069
2389.00,0.0069
2388.00,0.0068
2387.00,0.0068
2386.00,0.0068
2385.00,0.0069
2384.00,0.0069
2383.00,0.0069
2382.00,0.0069
2381.00,0.0068
2380.00,0.0067
2379.00,0.0066
2378.00,0.0064
2377.00,0.0062
2376.00,0.0062
2375.00,0.0061
2374.00,0.0061
2373.00,0.0061
2372.00,0.0061
2371.00,0.0062
2370.00,0.0062
2369.00,0.0063
2368.00,0.0063
2367.00,0.0062
2366.00,0.0060
2365.00,0.0059
2364.00,0.0058
2363.00,0.0058
2362.00,0.0059
2361.00,0.0061
2360.00,0.0061
2359.00,0.0061
2358.00,0.0059
2357.00,0.0059
2356.00,0.0060
2355.00,0.0061
2354.00,0.0062
2353.00,0.0063
2352.00,0.0062
2351.00,0.0061
2350.00,0.0061
2349.00,0.0061
2348.00,0.0062
2347.00,0.0062
2346.00,0.0061
2345.00,0.0059
2344.00,0.0057
2343.00,0.0056
2342.00,0.0056
2341.00,0.0056
2340.00,0.0056
2339.00,0.0056
2338.00,0.0056
2337.00,0.0057
2336.00,0.0058
2335.00,0.0059
2334.00,0.0060
2333.00,0.0060
2332.00,0.0060
2331.00,0.0061
2330.00,0.0061
2329.00,0.0062
2328.00,0.0063
2327.00,0.0065
2326.00,0.0065
2325.00,0.0066
2324.00,0.0066
2323.00,0.0066
2322.00,0.0065
2321.00,0.0063
2320.00,0.0061
2319.00,0.0059
2318.00,0.0059
2317.00,0.0060
2316.00,0.0062
2315.00,0.0064
2314.00,0.0065
2313.00,0.0065
2312.00,0.0065
2311.00,0.0063
2310.00,0.0062
2309.00,0.0060
2308.00,0.0059
2307.00,0.0059
2306.00,0.0060
2305.00,0.0060
2304.00,0.0060
2303.00,0.0061
2302.00,0.0060
2301.00,0.0060
2300.00,0.0060
2299.00,0.0059
2298.00,0.0059
2297.00,0.0058
2296.00,0.0058
2295.00,0.0058
2294.00,0.0058
2293.00,0.0058
2292.00,0.0059
2291.00,0.0059
2290.00,0.0059
2289.00,0.0059
2288.00,0.0059
2287.00,0.0059
2286.00,0.0059
2285.00,0.0059
2284.00,0.0058
2283.00,0.0058
2282.00,0.0058
2281.00,0.0059
2280.00,0.0060
2279.00,0.0060
2278.00,0.0060
2277.00,0.0059
2276.00,0.0059
2275.00,0.0058
2274.00,0.0058
2273.00,0.0059
2272.00,0.0059
2271.00,0.0058
2270.00,0.0057
2269.00,0.0056
2268.00,0.0056
2267.00,0.0056
2266.00,0.0057
2265.00,0.0057
2264.00,0.0056
2263.00,0.0056
2262.00,0.0056
2261.00,0.0056
2260.00,0.0056
2259.00,0.0057
2258.00,0.0057
2257.00,0.0057
2256.00,0.0057
2255.00,0.0056
2254.00,0.0056
2253.00,0.0055
2252.00,0.0055
2251.00,0.0055
2250.00,0.0055
2249.00,0.0055
2248.00,0.0055
2247.00,0.0054
2246.00,0.0053
2245.00,0.0053
2244.00,0.0053
2243.00,0.0053
2242.00,0.0053
2241.00,0.0053
2240.00,0.0054
2239.00,0.0054
2238.00,0.0055
2237.00,0.0055
2236.00,0.0055
2235.00,0.0054
2234.00,0.0054
2233.00,0.0054
2232.00,0.0054
2231.00,0.0055
2230.00,0.0056
2229.00,0.0056
2228.00,0.0057
2227.00,0.0057
2226.00,0.0056
2225.00,0.0056
2224.00,0.0055
2223.00,0.0054
2222.00,0.0053
2221.00,0.0054
2220.00,0.0055
2219.00,0.0055
2218.00,0.0055
2217.00,0.0055
2216.00,0.0055
2215.00,0.0056
2214.00,0.0056
2213.00,0.0056
2212.00,0.0055
2211.00,0.0054
2210.00,0.0052
2209.00,0.0051
2208.00,0.0051
2207.00,0.0051
2206.00,0.0052
2205.00,0.0054
2204.00,0.0055
2203.00,0.0055
2202.00,0.0055
2201.00,0.0054
2200.00,0.0053
2199.00,0.0053
2198.00,0.0054
2197.00,0.0055
2196.00,0.0056
2195.00,0.0056
2194.00,0.0055
2193.00,0.0054
2192.00,0.0053
2191.00,0.0053
2190.00,0.0055
2189.00,0.0056
2188.00,0.0056
2187.00,0.0055
2186.00,0.0054
2185.00,0.0054
2184.00,0.0054
2183.00,0.0054
2182.00,0.0054
2181.00,0.0055
2180.00,0.0056
2179.00,0.0056
2178.00,0.0056
2177.00,0.0054
2176.00,0.0053
2175.00,0.0052
2174.00,0.0052
2173.00,0.0052
2172.00,0.0052
2171.00,0.0050
2170.00,0.0048
2169.00,0.0047
2168.00,0.0047
2167.00,0.0049
2166.00,0.0050
2165.00,0.0052
2164.00,0.0054
2163.00,0.0055
2162.00,0.0055
2161.00,0.0054
2160.00,0.0052
2159.00,0.0049
2158.00,0.0046
2157.00,0.0045
2156.00,0.0045
2155.00,0.0046
2154.00,0.0047
2153.00,0.0048
2152.00,0.0047
2151.00,0.0046
2150.00,0.0046
2149.00,0.0045
2148.00,0.0044
2147.00,0.0044
2146.00,0.0045
2145.00,0.0045
2144.00,0.0045
2143.00,0.0045
2142.00,0.0046
2141.00,0.0046
2140.00,0.0047
2139.00,0.0047
2138.00,0.0047
2137.00,0.0046
2136.00,0.0043
2135.00,0.0042
2134.00,0.0041
2133.00,0.0042
2132.00,0.0043
2131.00,0.0044
2130.00,0.0044
2129.00,0.0044
2128.00,0.0043
2127.00,0.0042
2126.00,0.0041
2125.00,0.0041
2124.00,0.0041
2123.00,0.0041
2122.00,0.0042
2121.00,0.0044
2120.00,0.0045
2119.00,0.0046
2118.00,0.0047
2117.00,0.0047
2116.00,0.0047
2115.00,0.0047
2114.00,0.0046
2113.00,0.0044
2112.00,0.0043
2111.00,0.0042
2110.00,0.0042
2109.00,0.0043
2108.00,0.0044
2107.00,0.0045
2106.00,0.0044
2105.00,0.0044
2104.00,0.0043
2103.00,0.0043
2102.00,0.0043
2101.00,0.0043
2100.00,0.0043
2099.00,0.0043
2098.00,0.0044
2097.00,0.0044
2096.00,0.0043
2095.00,0.0042
2094.00,0.0041
2093.00,0.0041
2092.00,0.0042
2091.00,0.0042
2090.00,0.0043
2089.00,0.0043
2088.00,0.0043
2087.00,0.0043
2086.00,0.0043
2085.00,0.0042
2084.00,0.0041
2083.00,0.0040
2082.00,0.0040
2081.00,0.0040
2080.00,0.0040
2079.00,0.0041
2078.00,0.0042
2077.00,0.0043
2076.00,0.0043
2075.00,0.0042
2074.00,0.0041
2073.00,0.0039
2072.00,0.0038
2071.00,0.0039
2070.00,0.0039
2069.00,0.0041
2068.00,0.0042
2067.00,0.0043
2066.00,0.0043
2065.00,0.0044
2064.00,0.0044
2063.00,0.0043
2062.00,0.0043
2061.00,0.0042
2060.00,0.0042
2059.00,0.0041
2058.00,0.0041
2057.00,0.0042
2056.00,0.0042
2055.00,0.0043
2054.00,0.0043
2053.00,0.0044
2052.00,0.0045
2051.00,0.0044
2050.00,0.0044
2049.00,0.0043
2048.00,0.0043
2047.00,0.0044
2046.00,0.0044
2045.00,0.0044
2044.00,0.0043
2043.00,0.0041
2042.00,0.0040
2041.00,0.0041
2040.00,0.0042
2039.00,0.0043
2038.00,0.0043
2037.00,0.0044
2036.00,0.0043
2035.00,0.0043
2034.00,0.0042
2033.00,0.0042
2032.00,0.0042
2031.00,0.0042
2030.00,0.0042
2029.00,0.0042
2028.00,0.0041
2027.00,0.0039
2026.00,0.0038
2025.00,0.0037
2024.00,0.0037
2023.00,0.0039
2022.00,0.0041
2021.00,0.0043
2020.00,0.0044
2019.00,0.0043
2018.00,0.0041
2017.00,0.0039
2016.00,0.0038
2015.00,0.0039
2014.00,0.0040
2013.00,0.0041
2012.00,0.0041
2011.00,0.0040
2010.00,0.0038
2009.00,0.0037
2008.00,0.0036
2007.00,0.0036
2006.00,0.0036
2005.00,0.0038
2004.00,0.0039
2003.00,0.0041
2002.00,0.0041
2001.00,0.0040
2000.00,0.0039
1999.00,0.0038
1998.00,0.0038
1997.00,0.0039
1996.00,0.0040
1995.00,0.0041
1994.00,0.0042
1993.00,0.0043
1992.00,0.0043
1991.00,0.0042
1990.00,0.0041
1989.00,0.0040
1988.00,0.0039
1987.00,0.0038
1986.00,0.0038
1985.00,0.0039
1984.00,0.0040
1983.00,0.0041
1982.00,0.0041
1981.00,0.0041
1980.00,0.0040
1979.00,0.0039
1978.00,0.0039
1977.00,0.0041
1976.00,0.0042
1975.00,0.0043
1974.00,0.0042
1973.00,0.0041
1972.00,0.0040
1971.00,0.0040
1970.00,0.0040
1969.00,0.0041
1968.00,0.0041
1967.00,0.0039
1966.00,0.0037
1965.00,0.0036
1964.00,0.0036
1963.00,0.0036
1962.00,0.0037
1961.00,0.0037
1960.00,0.0036
1959.00,0.0035
1958.00,0.0034
1957.00,0.0033
1956.00,0.0032
1955.00,0.0031
1954.00,0.0031
1953.00,0.0032
1952.00,0.0033
1951.00,0.0033
1950.00,0.0032
1949.00,0.0032
1948.00,0.0032
1947.00,0.0032
1946.00,0.0032
1945.00,0.0033
1944.00,0.0034
1943.00,0.0033
1942.00,0.0033
1941.00,0.0032
1940.00,0.0032
1939.00,0.0031
1938.00,0.0031
1937.00,0.0032
1936.00,0.0032
1935.00,0.0033
1934.00,0.0033
1933.00,0.0033
1932.00,0.0032
1931.00,0.0032
1930.00,0.0032
1929.00,0.0032
1928.00,0.0032
1927.00,0.0032
1926.00,0.0034
1925.00,0.0035
1924.00,0.0035
1923.00,0.0033
1922.00,0.0031
1921.00,0.0031
1920.00,0.0032
1919.00,0.0031
1918.00,0.0031
1917.00,0.0030
1916.00,0.0030
1915.00,0.0030
1914.00,0.0029
1913.00,0.0029
1912.00,0.0029
1911.00,0.0029
1910.00,0.0029
1909.00,0.0029
1908.00,0.0028
1907.00,0.0028
1906.00,0.0027
1905.00,0.0027
1904.00,0.0027
1903.00,0.0027
1902.00,0.0027
1901.00,0.0027
1900.00,0.0026
1899.00,0.0026
1898.00,0.0026
1897.00,0.0026
1896.00,0.0026
1895.00,0.0026
1894.00,0.0026
1893.00,0.0027
1892.00,0.0027
1891.00,0.0027
1890.00,0.0026
1889.00,0.0025
1888.00,0.0024
1887.00,0.0023
1886.00,0.0023
1885.00,0.0023
1884.00,0.0023
1883.00,0.0023
1882.00,0.0024
1881.00,0.0024
1880.00,0.0024
1879.00,0.0024
1878.00,0.0023
1877.00,0.0023
1876.00,0.0023
1875.00,0.0022
1874.00,0.0022
1873.00,0.0023
1872.00,0.0025
1871.00,0.0025
1870.00,0.0024
1869.00,0.0022
1868.00,0.0021
1867.00,0.0021
1866.00,0.0021
1865.00,0.0022
1864.00,0.0022
1863.00,0.0021
1862.00,0.0021
1861.00,0.0020
1860.00,0.0020
1859.00,0.0021
1858.00,0.0021
1857.00,0.0021
1856.00,0.0021
1855.00,0.0021
1854.00,0.0021
1853.00,0.0020
1852.00,0.0020
1851.00,0.0019
1850.00,0.0019
1849.00,0.0019
1848.00,0.0020
1847.00,0.0021
1846.00,0.0021
1845.00,0.0019
1844.00,0.0016
1843.00,0.0015
1842.00,0.0015
1841.00,0.0017
1840.00,0.0018
1839.00,0.0018
1838.00,0.0018
1837.00,0.0018
1836.00,0.0017
1835.00,0.0017
1834.00,0.0018
1833.00,0.0020
1832.00,0.0022
1831.00,0.0021
1830.00,0.0019
1829.00,0.0018
1828.00,0.0018
1827.00,0.0019
1826.00,0.0019
1825.00,0.0018
1824.00,0.0016
1823.00,0.0016
1822.00,0.0016
1821.00,0.0016
1820.00,0.0016
1819.00,0.0016
1818.00,0.0016
1817.00,0.0016
1816.00,0.0016
1815.00,0.0017
1814.00,0.0017
1813.00,0.0017
1812.00,0.0017
1811.00,0.0017
1810.00,0.0016
1809.00,0.0016
1808.00,0.0017
1807.00,0.0017
1806.00,0.0018
1805.00,0.0019
1804.00,0.0021
1803.00,0.0022
1802.00,0.0022
1801.00,0.0022
1800.00,0.0021
1799.00,0.0021
1798.00,0.0021
1797.00,0.0022
1796.00,0.0024
1795.00,0.0026
1794.00,0.0026
1793.00,0.0025
1792.00,0.0024
1791.00,0.0024
1790.00,0.0025
1789.00,0.0026
1788.00,0.0027
1787.00,0.0028
1786.00,0.0028
1785.00,0.0029
1784.00,0.0030
1783.00,0.0033
1782.00,0.0034
1781.00,0.0035
1780.00,0.0036
1779.00,0.0036
1778.00,0.0038
1777.00,0.0039
1776.00,0.0041
1775.00,0.0044
1774.00,0.0046
1773.00,0.0045
1772.00,0.0044
1771.00,0.0044
1770.00,0.0045
1769.00,0.0046
1768.00,0.0047
1767.00,0.0048
1766.00,0.0049
1765.00,0.0052
1764.00,0.0054
1763.00,0.0055
1762.00,0.0055
1761.00,0.0055
1760.00,0.0057
1759.00,0.0058
1758.00,0.0059
1757.00,0.0059
1756.00,0.0059
1755.00,0.0059
1754.00,0.0060
1753.00,0.0061
1752.00,0.0061
1751.00,0.0062
1750.00,0.0064
1749.00,0.0066
1748.00,0.0068
1747.00,0.0070
1746.00,0.0071
1745.00,0.0073
1744.00,0.0074
1743.00,0.0076
1742.00,0.0078
1741.00,0.0079
1740.00,0.0079
1739.00,0.0080
1738.00,0.0082
1737.00,0.0086
1736.00,0.0089
1735.00,0.0089
1734.00,0.0089
1733.00,0.0091
1732.00,0.0095
1731.00,0.0099
1730.00,0.0102
1729.00,0.0104
1728.00,0.0105
1727.00,0.0107
1726.00,0.0109
1725.00,0.0111
1724.00,0.0114
1723.00,0.0115
1722.00,0.0118
1721.00,0.0121
1720.00,0.0125
1719.00,0.0125
1718.00,0.0124
1717.00,0.0126
1716.00,0.0128
1715.00,0.0130
1714.00,0.0131
1713.00,0.0133
1712.00,0.0134
1711.00,0.0134
1710.00,0.0135
1709.00,0.0137
1708.00,0.0140
1707.00,0.0142
1706.00,0.0143
1705.00,0.0144
1704.00,0.0146
1703.00,0.0148
1702.00,0.0149
1701.00,0.0148
1700.00,0.0146
1699.00,0.0146
1698.00,0.0148
1697.00,0.0151
1696.00,0.0151
1695.00,0.0149
1694.00,0.0149
1693.00,0.0150
1692.00,0.0152
1691.00,0.0153
1690.00,0.0153
1689.00,0.0154
1688.00,0.0156
1687.00,0.0158
1686.00,0.0160
1685.00,0.0159
1684.00,0.0160
1683.00,0.0161
1682.00,0.0162
1681.00,0.0163
1680.00,0.0164
1679.00,0.0164
1678.00,0.0165
1677.00,0.0166
1676.00,0.0166
1675.00,0.0167
1674.00,0.0169
1673.00,0.0171
1672.00,0.0174
1671.00,0.0175
1670.00,0.0176
1669.00,0.0178
1668.00,0.0179
1667.00,0.0180
1666.00,0.0181
1665.00,0.0182
1664.00,0.0183
1663.00,0.0184
1662.00,0.0186
1661.00,0.0187
1660.00,0.0188
1659.00,0.0189
1658.00,0.0190
1657.00,0.0192
1656.00,0.0195
1655.00,0.0198
1654.00,0.0199
1653.00,0.0204
1652.00,0.0204
1651.00,0.0204
1650.00,0.0205
1649.00,0.0207
1648.00,0.0208
1647.00,0.0210
1646.00,0.0214
1645.00,0.0215
1644.00,0.0216
1643.00,0.0217
1642.00,0.0219
1641.00,0.0220
1640.00,0.0221
1639.00,0.0223
1638.00,0.0224
1637.00,0.0226
1636.00,0.0231
1635.00,0.0235
1634.00,0.0237
1633.00,0.0237
1632.00,0.0237
1631.00,0.0238
1630.00,0.0240
1629.00,0.0242
1628.00,0.0245
1627.00,0.0247
1626.00,0.0249
1625.00,0.0250
1624.00,0.0252
1623.00,0.0255
1622.00,0.0256
1621.00,0.0257
1620.00,0.0257
1619.00,0.0257
1618.00,0.0258
1617.00,0.0260
1616.00,0.0264
1615.00,0.0266
1614.00,0.0267
1613.00,0.0268
1612.00,0.0268
1611.00,0.0269
1610.00,0.0271
1609.00,0.0273
1608.00,0.0274
1607.00,0.0276
1606.00,0.0277
1605.00,0.0277
1604.00,0.0278
1603.00,0.0279
1602.00,0.0281
1601.00,0.0282
1600.00,0.0282
1599.00,0.0283
1598.00,0.0284
1597.00,0.0284
1596.00,0.0285
1595.00,0.0286
1594.00,0.0287
1593.00,0.0287
1592.00,0.0287
1591.00,0.0287
1590.00,0.0288
1589.00,0.0289
1588.00,0.0289
1587.00,0.0289
1586.00,0.0290
1585.00,0.0289
1584.00,0.0289
1583.00,0.0289
1582.00,0.0290
1581.00,0.0290
1580.00,0.0289
1579.00,0.0289
1578.00,0.0289
1577.00,0.0290
1576.00,0.0292
1575.00,0.0293
1574.00,0.0292
1573.00,0.0291
1572.00,0.0290
1571.00,0.0289
1570.00,0.0289
1569.00,0.0290
1568.00,0.0289
1567.00,0.0289
1566.00,0.0288
1565.00,0.0287
1564.00,0.0286
1563.00,0.0285
1562.00,0.0285
1561.00,0.0284
1560.00,0.0281
1559.00,0.0286
1558.00,0.0290
1557.00,0.0285
1556.00,0.0280
1555.00,0.0277
1554.00,0.0275
1553.00,0.0273
1552.00,0.0271
1551.00,0.0271
1550.00,0.0269
1549.00,0.0268
1548.00,0.0265
1547.00,0.0263
1546.00,0.0261
1545.00,0.0259
1544.00,0.0259
1543.00,0.0257
1542.00,0.0254
1541.00,0.0252
1540.00,0.0254
1539.00,0.0255
1538.00,0.0251
1537.00,0.0248
1536.00,0.0246
1535.00,0.0245
1534.00,0.0244
1533.00,0.0244
1532.00,0.0244
1531.00,0.0241
1530.00,0.0239
1529.00,0.0237
1528.00,0.0235
1527.00,0.0234
1526.00,0.0232
1525.00,0.0231
1524.00,0.0230
1523.00,0.0228
1522.00,0.0226
1521.00,0.0226
1520.00,0.0227
1519.00,0.0227
1518.00,0.0227
1517.00,0.0226
1516.00,0.0225
1515.00,0.0222
1514.00,0.0218
1513.00,0.0216
1512.00,0.0214
1511.00,0.0214
1510.00,0.0215
1509.00,0.0216
1508.00,0.0217
1507.00,0.0218
1506.00,0.0216
1505.00,0.0211
1504.00,0.0207
1503.00,0.0206
1502.00,0.0205
1501.00,0.0204
1500.00,0.0203
1499.00,0.0202
1498.00,0.0200
1497.00,0.0199
1496.00,0.0200
1495.00,0.0201
1494.00,0.0201
1493.00,0.0201
1492.00,0.0202
1491.00,0.0204
1490.00,0.0206
1489.00,0.0208
1488.00,0.0209
1487.00,0.0208
1486.00,0.0206
1485.00,0.0205
1484.00,0.0204
1483.00,0.0203
1482.00,0.0203
1481.00,0.0203
1480.00,0.0204
1479.00,0.0204
1478.00,0.0204
1477.00,0.0205
1476.00,0.0206
1475.00,0.0206
1474.00,0.0205
1473.00,0.0206
1472.00,0.0207
1471.00,0.0207
1470.00,0.0207
1469.00,0.0207
1468.00,0.0207
1467.00,0.0208
1466.00,0.0208
1465.00,0.0208
1464.00,0.0209
1463.00,0.0209
1462.00,0.0209
1461.00,0.0209
1460.00,0.0210
1459.00,0.0210
1458.00,0.0209
1457.00,0.0211
1456.00,0.0213
1455.00,0.0215
1454.00,0.0216
1453.00,0.0216
1452.00,0.0217
1451.00,0.0218
1450.00,0.0219
1449.00,0.0221
1448.00,0.0223
1447.00,0.0224
1446.00,0.0223
1445.00,0.0223
1444.00,0.0223
1443.00,0.0224
1442.00,0.0224
1441.00,0.0224
1440.00,0.0225
1439.00,0.0225
1438.00,0.0225
1437.00,0.0226
1436.00,0.0229
1435.00,0.0230
1434.00,0.0231
1433.00,0.0231
1432.00,0.0231
1431.00,0.0232
1430.00,0.0233
1429.00,0.0234
1428.00,0.0234
1427.00,0.0234
1426.00,0.0234
1425.00,0.0234
1424.00,0.0235
1423.00,0.0236
1422.00,0.0236
1421.00,0.0235
1420.00,0.0236
1419.00,0.0238
1418.00,0.0240
1417.00,0.0241
1416.00,0.0241
1415.00,0.0240
1414.00,0.0240
1413.00,0.0240
1412.00,0.0240
1411.00,0.0241
1410.00,0.0241
1409.00,0.0241
1408.00,0.0241
1407.00,0.0241
1406.00,0.0242
1405.00,0.0243
1404.00,0.0244
1403.00,0.0245
1402.00,0.0245
1401.00,0.0245
1400.00,0.0245
1399.00,0.0247
1398.00,0.0248
1397.00,0.0248
1396.00,0.0249
1395.00,0.0250
1394.00,0.0250
1393.00,0.0249
1392.00,0.0248
1391.00,0.0247
1390.00,0.0247
1389.00,0.0248
1388.00,0.0249
1387.00,0.0251
1386.00,0.0252
1385.00,0.0252
1384.00,0.0252
1383.00,0.0251
1382.00,0.0251
1381.00,0.0252
1380.00,0.0252
1379.00,0.0252
1378.00,0.0252
1377.00,0.0252
1376.00,0.0253
1375.00,0.0255
1374.00,0.0256
1373.00,0.0256
1372.00,0.0254
1371.00,0.0253
1370.00,0.0253
1369.00,0.0253
1368.00,0.0253
1367.00,0.0253
1366.00,0.0252
1365.00,0.0252
1364.00,0.0252
1363.00,0.0254
1362.00,0.0254
1361.00,0.0254
1360.00,0.0253
1359.00,0.0252
1358.00,0.0251
1357.00,0.0250
1356.00,0.0249
1355.00,0.0248
1354.00,0.0248
1353.00,0.0247
1352.00,0.0246
1351.00,0.0245
1350.00,0.0244
1349.00,0.0244
1348.00,0.0243
1347.00,0.0243
1346.00,0.0243
1345.00,0.0243
1344.00,0.0242
1343.00,0.0242
1342.00,0.0242
1341.00,0.0242
1340.00,0.0242
1339.00,0.0242
1338.00,0.0241
1337.00,0.0240
1336.00,0.0239
1335.00,0.0238
1334.00,0.0237
1333.00,0.0236
1332.00,0.0236
1331.00,0.0235
1330.00,0.0235
1329.00,0.0234
1328.00,0.0233
1327.00,0.0232
1326.00,0.0231
1325.00,0.0232
1324.00,0.0232
1323.00,0.0232
1322.00,0.0231
1321.00,0.0231
1320.00,0.0230
1319.00,0.0230
1318.00,0.0230
1317.00,0.0230
1316.00,0.0230
1315.00,0.0231
1314.00,0.0231
1313.00,0.0230
1312.00,0.0229
1311.00,0.0229
1310.00,0.0228
1309.00,0.0228
1308.00,0.0228
1307.00,0.0228
1306.00,0.0228
1305.00,0.0228
1304.00,0.0227
1303.00,0.0227
1302.00,0.0227
1301.00,0.0227
1300.00,0.0228
1299.00,0.0228
1298.00,0.0228
1297.00,0.0227
1296.00,0.0227
1295.00,0.0227
1294.00,0.0227
1293.00,0.0227
1292.00,0.0228
1291.00,0.0228
1290.00,0.0228
1289.00,0.0228
1288.00,0.0229
1287.00,0.0230
1286.00,0.0230
1285.00,0.0229
1284.00,0.0229
1283.00,0.0229
1282.00,0.0229
1281.00,0.0229
1280.00,0.0230
1279.00,0.0230
1278.00,0.0230
1277.00,0.0230
1276.00,0.0230
1275.00,0.0230
1274.00,0.0231
1273.00,0.0231
1272.00,0.0231
1271.00,0.0231
1270.00,0.0231
1269.00,0.0231
1268.00,0.0231
1267.00,0.0231
1266.00,0.0231
1265.00,0.0230
1264.00,0.0229
1263.00,0.0228
1262.00,0.0229
1261.00,0.0230
1260.00,0.0231
1259.00,0.0232
1258.00,0.0233
1257.00,0.0234
1256.00,0.0235
1255.00,0.0237
1254.00,0.0238
1253.00,0.0240
1252.00,0.0241
1251.00,0.0242
1250.00,0.0242
1249.00,0.0243
1248.00,0.0244
1247.00,0.0245
1246.00,0.0246
1245.00,0.0247
1244.00,0.0248
1243.00,0.0249
1242.00,0.0249
1241.00,0.0250
1240.00,0.0250
1239.00,0.0251
1238.00,0.0251
1237.00,0.0252
1236.00,0.0253
1235.00,0.0253
1234.00,0.0253
1233.00,0.0254
1232.00,0.0254
1231.00,0.0255
1230.00,0.0255
1229.00,0.0256
1228.00,0.0256
1227.00,0.0256
1226.00,0.0257
1225.00,0.0258
1224.00,0.0258
1223.00,0.0259
1222.00,0.0259
1221.00,0.0259
1220.00,0.0260
1219.00,0.0260
1218.00,0.0261
1217.00,0.0261
1216.00,0.0262
1215.00,0.0262
1214.00,0.0262
1213.00,0.0262
1212.00,0.0262
1211.00,0.0263
1210.00,0.0263
1209.00,0.0264
1208.00,0.0264
1207.00,0.0265
1206.00,0.0265
1205.00,0.0265
1204.00,0.0265
1203.00,0.0265
1202.00,0.0265
1201.00,0.0264
1200.00,0.0265
1199.00,0.0265
1198.00,0.0266
1197.00,0.0266
1196.00,0.0267
1195.00,0.0267
1194.00,0.0267
1193.00,0.0267
1192.00,0.0268
1191.00,0.0268
1190.00,0.0269
1189.00,0.0270
1188.00,0.0271
1187.00,0.0271
1186.00,0.0272
1185.00,0.0272
1184.00,0.0273
1183.00,0.0273
1182.00,0.0273
1181.00,0.0274
1180.00,0.0275
1179.00,0.0276
1178.00,0.0277
1177.00,0.0277
1176.00,0.0278
1175.00,0.0278
1174.00,0.0279
1173.00,0.0279
1172.00,0.0279
1171.00,0.0280
1170.00,0.0281
1169.00,0.0282
1168.00,0.0283
1167.00,0.0285
1166.00,0.0286
1165.00,0.0286
1164.00,0.0287
1163.00,0.0287
1162.00,0.0286
1161.00,0.0286
1160.00,0.0286
1159.00,0.0287
1158.00,0.0287
1157.00,0.0287
1156.00,0.0287
1155.00,0.0287
1154.00,0.0288
1153.00,0.0288
1152.00,0.0289
1151.00,0.0289
1150.00,0.0290
1149.00,0.0291
1148.00,0.0292
1147.00,0.0294
1146.00,0.0295
1145.00,0.0296
1144.00,0.0296
1143.00,0.0296
1142.00,0.0296
1141.00,0.0297
1140.00,0.0298
1139.00,0.0299
1138.00,0.0302
1137.00,0.0304
1136.00,0.0305
1135.00,0.0306
1134.00,0.0308
1133.00,0.0310
1132.00,0.0312
1131.00,0.0314
1130.00,0.0316
1129.00,0.0318
1128.00,0.0321
1127.00,0.0324
1126.00,0.0327
1125.00,0.0330
1124.00,0.0334
1123.00,0.0338
1122.00,0.0342
1121.00,0.0346
1120.00,0.0351
1119.00,0.0356
1118.00,0.0361
1117.00,0.0365
1116.00,0.0367
1115.00,0.0369
1114.00,0.0371
1113.00,0.0373
1112.00,0.0375
1111.00,0.0377
1110.00,0.0380
1109.00,0.0383
1108.00,0.0386
1107.00,0.0389
1106.00,0.0391
1105.00,0.0395
1104.00,0.0398
1103.00,0.0401
1102.00,0.0404
1101.00,0.0406
1100.00,0.0408
1099.00,0.0409
1098.00,0.0410
1097.00,0.0411
1096.00,0.0412
1095.00,0.0414
1094.00,0.0416
1093.00,0.0418
1092.00,0.0421
1091.00,0.0424
1090.00,0.0425
1089.00,0.0425
1088.00,0.0425
1087.00,0.0425
1086.00,0.0425
1085.00,0.0426
1084.00,0.0427
1083.00,0.0428
1082.00,0.0429
1081.00,0.0430
1080.00,0.0431
1079.00,0.0431
1078.00,0.0432
1077.00,0.0432
1076.00,0.0433
1075.00,0.0434
1074.00,0.0436
1073.00,0.0438
1072.00,0.0439
1071.00,0.0439
1070.00,0.0439
1069.00,0.0440
1068.00,0.0441
1067.00,0.0441
1066.00,0.0442
1065.00,0.0443
1064.00,0.0444
1063.00,0.0446
1062.00,0.0447
1061.00,0.0448
1060.00,0.0450
1059.00,0.0452
1058.00,0.0453
1057.00,0.0455
1056.00,0.0457
1055.00,0.0458
1054.00,0.0460
1053.00,0.0461
1052.00,0.0464
1051.00,0.0467
1050.00,0.0470
1049.00,0.0473
1048.00,0.0477
1047.00,0.0480
1046.00,0.0482
1045.00,0.0484
1044.00,0.0486
1043.00,0.0489
1042.00,0.0492
1041.00,0.0495
1040.00,0.0498
1039.00,0.0501
1038.00,0.0503
1037.00,0.0506
1036.00,0.0509
1035.00,0.0512
1034.00,0.0515
1033.00,0.0516
1032.00,0.0517
1031.00,0.0516
1030.00,0.0514
1029.00,0.0511
1028.00,0.0508
1027.00,0.0504
1026.00,0.0500
1025.00,0.0496
1024.00,0.0493
1023.00,0.0491
1022.00,0.0489
1021.00,0.0487
1020.00,0.0486
1019.00,0.0485
1018.00,0.0485
1017.00,0.0485
1016.00,0.0486
1015.00,0.0487
1014.00,0.0488
1013.00,0.0490
1012.00,0.0492
1011.00,0.0495
1010.00,0.0498
1009.00,0.0500
1008.00,0.0502
1007.00,0.0503
1006.00,0.0504
1005.00,0.0503
1004.00,0.0502
1003.00,0.0501
1002.00,0.0499
1001.00,0.0497
1000.00,0.0493
999.00,0.0489
998.00,0.0484
997.00,0.0479
996.00,0.0474
995.00,0.0469
994.00,0.0465
993.00,0.0461
992.00,0.0458
991.00,0.0454
990.00,0.0451
989.00,0.0447
988.00,0.0444
987.00,0.0441
986.00,0.0438
985.00,0.0434
984.00,0.0431
983.00,0.0427
982.00,0.0424
981.00,0.0422
980.00,0.0419
979.00,0.0416
978.00,0.0413
977.00,0.0410
976.00,0.0407
975.00,0.0405
974.00,0.0403
973.00,0.0402
972.00,0.0400
971.00,0.0399
970.00,0.0398
969.00,0.0397
968.00,0.0396
967.00,0.0394
966.00,0.0392
965.00,0.0391
964.00,0.0390
963.00,0.0389
962.00,0.0387
961.00,0.0386
960.00,0.0384
959.00,0.0383
958.00,0.0381
957.00,0.0379
956.00,0.0378
955.00,0.0378
954.00,0.0378
953.00,0.0379
952.00,0.0379
951.00,0.0379
950.00,0.0378
949.00,0.0378
948.00,0.0379
947.00,0.0380
946.00,0.0382
945.00,0.0383
944.00,0.0384
943.00,0.0385
942.00,0.0385
941.00,0.0387
940.00,0.0388
939.00,0.0389
938.00,0.0388
937.00,0.0388
936.00,0.0388
935.00,0.0388
934.00,0.0388
933.00,0.0387
932.00,0.0386
931.00,0.0385
930.00,0.0384
929.00,0.0384
928.00,0.0384
927.00,0.0385
926.00,0.0385
925.00,0.0385
924.00,0.0386
923.00,0.0387
922.00,0.0389
921.00,0.0392
920.00,0.0395
919.00,0.0398
918.00,0.0402
917.00,0.0405
916.00,0.0408
915.00,0.0410
914.00,0.0411
913.00,0.0411
912.00,0.0410
911.00,0.0409
910.00,0.0408
909.00,0.0406
908.00,0.0404
907.00,0.0402
906.00,0.0399
905.00,0.0396
904.00,0.0394
903.00,0.0391
902.00,0.0389
901.00,0.0387
900.00,0.0385
899.00,0.0383
898.00,0.0381
897.00,0.0378
896.00,0.0375
895.00,0.0372
894.00,0.0369
893.00,0.0367
892.00,0.0365
891.00,0.0363
890.00,0.0361
889.00,0.0359
888.00,0.0358
887.00,0.0358
886.00,0.0358
885.00,0.0357
884.00,0.0356
883.00,0.0355
882.00,0.0354
881.00,0.0353
880.00,0.0353
879.00,0.0352
878.00,0.0351
877.00,0.0349
876.00,0.0347
875.00,0.0345
874.00,0.0343
873.00,0.0342
872.00,0.0341
871.00,0.0340
870.00,0.0338
869.00,0.0337
868.00,0.0336
867.00,0.0334
866.00,0.0333
865.00,0.0332
864.00,0.0333
863.00,0.0333
862.00,0.0334
861.00,0.0335
860.00,0.0335
859.00,0.0336
858.00,0.0335
857.00,0.0333
856.00,0.0332
855.00,0.0331
854.00,0.0331
853.00,0.0330
852.00,0.0330
851.00,0.0330
850.00,0.0329
849.00,0.0329
848.00,0.0331
847.00,0.0332
846.00,0.0334
845.00,0.0335
844.00,0.0335
843.00,0.0335
842.00,0.0334
841.00,0.0334
840.00,0.0333
839.00,0.0334
838.00,0.0336
837.00,0.0338
836.00,0.0340
835.00,0.0341
834.00,0.0341
833.00,0.0341
832.00,0.0342
831.00,0.0343
830.00,0.0344
829.00,0.0344
828.00,0.0343
827.00,0.0343
826.00,0.0343
825.00,0.0344
824.00,0.0345
823.00,0.0347
822.00,0.0349
821.00,0.0350
820.00,0.0351
819.00,0.0350
818.00,0.0349
817.00,0.0349
816.00,0.0348
815.00,0.0348
814.00,0.0349
813.00,0.0350
812.00,0.0351
811.00,0.0353
810.00,0.0355
809.00,0.0358
808.00,0.0360
807.00,0.0363
806.00,0.0365
805.00,0.0368
804.00,0.0370
803.00,0.0373
802.00,0.0378
801.00,0.0384
800.00,0.0387
799.00,0.0388
798.00,0.0388
797.00,0.0389
796.00,0.0391
795.00,0.0394
794.00,0.0395
793.00,0.0395
792.00,0.0394
791.00,0.0394
790.00,0.0395
789.00,0.0396
788.00,0.0397
787.00,0.0397
786.00,0.0397
785.00,0.0398
784.00,0.0400
783.00,0.0400
782.00,0.0400
781.00,0.0400
780.00,0.0400
779.00,0.0400
778.00,0.0399
777.00,0.0400
776.00,0.0400
775.00,0.0400
774.00,0.0399
773.00,0.0398
772.00,0.0397
771.00,0.0396
770.00,0.0395
769.00,0.0393
768.00,0.0393
767.00,0.0392
766.00,0.0392
765.00,0.0392
764.00,0.0392
763.00,0.0392
762.00,0.0393
761.00,0.0395
760.00,0.0397
759.00,0.0400
758.00,0.0403
757.00,0.0405
756.00,0.0405
755.00,0.0405
754.00,0.0404
753.00,0.0404
752.00,0.0403
751.00,0.0403
750.00,0.0404
749.00,0.0405
748.00,0.0407
747.00,0.0407
746.00,0.0407
745.00,0.0407
744.00,0.0406
743.00,0.0406
742.00,0.0404
741.00,0.0403
740.00,0.0402
739.00,0.0401
738.00,0.0399
737.00,0.0398
736.00,0.0397
735.00,0.0397
734.00,0.0396
733.00,0.0395
732.00,0.0395
731.00,0.0395
730.00,0.0395
729.00,0.0395
728.00,0.0395
727.00,0.0396
726.00,0.0397
725.00,0.0398
724.00,0.0399
723.00,0.0399
722.00,0.0398
721.00,0.0397
720.00,0.0396
719.00,0.0397
718.00,0.0398
717.00,0.0398
716.00,0.0399
715.00,0.0400
714.00,0.0403
713.00,0.0407
712.00,0.0412
711.00,0.0414
710.00,0.0414
709.00,0.0413
708.00,0.0413
707.00,0.0414
706.00,0.0417
705.00,0.0421
704.00,0.0424
703.00,0.0425
702.00,0.0426
701.00,0.0429
700.00,0.0434
699.00,0.0440
698.00,0.0446
697.00,0.0450
696.00,0.0453
695.00,0.0454
694.00,0.0453
693.00,0.0452
692.00,0.0453
691.00,0.0456
690.00,0.0458
689.00,0.0457
688.00,0.0455
687.00,0.0454
686.00,0.0454
685.00,0.0455
684.00,0.0455
683.00,0.0454
682.00,0.0456
681.00,0.0459
680.00,0.0462
679.00,0.0463
678.00,0.0463
677.00,0.0464
676.00,0.0467
675.00,0.0470
674.00,0.0471
673.00,0.0471
672.00,0.0468
671.00,0.0461
670.00,0.0453
669.00,0.0451
668.00,0.0462
667.00,0.0477
666.00,0.0487
665.00,0.0488
664.00,0.0485
663.00,0.0480
662.00,0.0475
661.00,0.0474
660.00,0.0478
659.00,0.0485
658.00,0.0490
657.00,0.0490
656.00,0.0488
655.00,0.0486
654.00,0.0482
653.00,0.0484
652.00,0.0489
651.00,0.0489
650.00,0.0490
