Created as New Dataset,
cm-1,A
4000.00,0.0124
3999.00,0.0124
3998.00,0.0124
3997.00,0.0125
3996.00,0.0125
3995.00,0.0126
3994.00,0.0126
3993.00,0.0126
3992.00,0.0126
3991.00,0.0126
3990.00,0.0125
3989.00,0.0124
3988.00,0.0124
3987.00,0.0124
3986.00,0.0124
3985.00,0.0124
3984.00,0.0125
3983.00,0.0125
3982.00,0.0125
3981.00,0.0125
3980.00,0.0125
3979.00,0.0125
3978.00,0.0125
3977.00,0.0125
3976.00,0.0125
3975.00,0.0125
3974.00,0.0125
3973.00,0.0125
3972.00,0.0125
3971.00,0.0125
3970.00,0.0125
3969.00,0.0124
3968.00,0.0123
3967.00,0.0123
3966.00,0.0123
3965.00,0.0123
3964.00,0.0124
3963.00,0.0124
3962.00,0.0124
3961.00,0.0125
3960.00,0.0125
3959.00,0.0126
3958.00,0.0126
3957.00,0.0126
3956.00,0.0126
3955.00,0.0125
3954.00,0.0125
3953.00,0.0125
3952.00,0.0126
3951.00,0.0126
3950.00,0.0127
3949.00,0.0127
3948.00,0.0127
3947.00,0.0128
3946.00,0.0128
3945.00,0.0129
3944.00,0.0129
3943.00,0.0128
3942.00,0.0128
3941.00,0.0128
3940.00,0.0127
3939.00,0.0127
3938.00,0.0126
3937.00,0.0125
3936.00,0.0126
3935.00,0.0127
3934.00,0.0128
3933.00,0.0128
3932.00,0.0128
3931.00,0.0128
3930.00,0.0128
3929.00,0.0128
3928.00,0.0128
3927.00,0.0128
3926.00,0.0128
3925.00,0.0127
3924.00,0.0127
3923.00,0.0127
3922.00,0.0128
3921.00,0.0128
3920.00,0.0128
3919.00,0.0128
3918.00,0.0128
3917.00,0.0128
3916.00,0.0128
3915.00,0.0128
3914.00,0.0127
3913.00,0.0127
3912.00,0.0126
3911.00,0.0125
3910.00,0.0124
3909.00,0.0124
3908.00,0.0125
3907.00,0.0127
3906.00,0.0127
3905.00,0.0128
3904.00,0.0129
3903.00,0.0131
3902.00,0.0134
3901.00,0.0136
3900.00,0.0135
3899.00,0.0133
3898.00,0.0131
3897.00,0.0129
3896.00,0.0128
3895.00,0.0128
3894.00,0.0128
3893.00,0.0127
3892.00,0.0127
3891.00,0.0125
3890.00,0.0125
3889.00,0.0127
3888.00,0.0130
3887.00,0.0131
3886.00,0.0129
3885.00,0.0127
3884.00,0.0130
3883.00,0.0134
3882.00,0.0136
3881.00,0.0133
3880.00,0.0130
3879.00,0.0128
3878.00,0.0128
3877.00,0.0130
3876.00,0.0131
3875.00,0.0128
3874.00,0.0126
3873.00,0.0127
3872.00,0.0130
3871.00,0.0131
3870.00,0.0129
3869.00,0.0127
3868.00,0.0129
3867.00,0.0132
3866.00,0.0132
3865.00,0.0130
3864.00,0.0128
3863.00,0.0128
3862.00,0.0129
3861.00,0.0128
3860.00,0.0127
3859.00,0.0125
3858.00,0.0125
3857.00,0.0126
3856.00,0.0127
3855.00,0.0127
3854.00,0.0126
3853.00,0.0126
3852.00,0.0128
3851.00,0.0130
3850.00,0.0130
3849.00,0.0128
3848.00,0.0126
3847.00,0.0125
3846.00,0.0124
3845.00,0.0124
3844.00,0.0123
3843.00,0.0123
3842.00,0.0123
3841.00,0.0125
3840.00,0.0126
3839.00,0.0127
3838.00,0.0128
3837.00,0.0129
3836.00,0.0129
3835.00,0.0130
3834.00,0.0130
3833.00,0.0129
3832.00,0.0127
3831.00,0.0125
3830.00,0.0125
3829.00,0.0127
3828.00,0.0127
3827.00,0.0125
3826.00,0.0123
3825.00,0.0123
3824.00,0.0125
3823.00,0.0127
3822.00,0.0126
3821.00,0.0123
3820.00,0.0123
3819.00,0.0126
3818.00,0.0129
3817.00,0.0128
3816.00,0.0125
3815.00,0.0122
3814.00,0.0123
3813.00,0.0124
3812.00,0.0124
3811.00,0.0121
3810.00,0.0121
3809.00,0.0121
3808.00,0.0120
3807.00,0.0118
3806.00,0.0117
3805.00,0.0120
3804.00,0.0124
3803.00,0.0126
3802.00,0.0124
3801.00,0.0122
3800.00,0.0123
3799.00,0.0126
3798.00,0.0128
3797.00,0.0126
3796.00,0.0123
3795.00,0.0122
3794.00,0.0123
3793.00,0.0123
3792.00,0.0122
3791.00,0.0121
3790.00,0.0121
3789.00,0.0120
3788.00,0.0120
3787.00,0.0120
3786.00,0.0120
3785.00,0.0120
3784.00,0.0120
3783.00,0.0121
3782.00,0.0123
3781.00,0.0123
3780.00,0.0122
3779.00,0.0121
3778.00,0.0121
3777.00,0.0122
3776.00,0.0122
3775.00,0.0121
3774.00,0.0119
3773.00,0.0119
3772.00,0.0119
3771.00,0.0119
3770.00,0.0119
3769.00,0.0120
3768.00,0.0122
3767.00,0.0123
3766.00,0.0123
3765.00,0.0121
3764.00,0.0120
3763.00,0.0122
3762.00,0.0123
3761.00,0.0123
3760.00,0.0122
3759.00,0.0122
3758.00,0.0121
3757.00,0.0121
3756.00,0.0120
3755.00,0.0120
3754.00,0.0119
3753.00,0.0117
3752.00,0.0115
3751.00,0.0117
3750.00,0.0119
3749.00,0.0121
3748.00,0.0124
3747.00,0.0128
3746.00,0.0132
3745.00,0.0129
3744.00,0.0124
3743.00,0.0123
3742.00,0.0124
3741.00,0.0125
3740.00,0.0123
3739.00,0.0121
3738.00,0.0121
3737.00,0.0122
3736.00,0.0123
3735.00,0.0125
3734.00,0.0128
3733.00,0.0129
3732.00,0.0126
3731.00,0.0123
3730.00,0.0121
3729.00,0.0121
3728.00,0.0121
3727.00,0.0120
3726.00,0.0119
3725.00,0.0120
3724.00,0.0122
3723.00,0.0123
3722.00,0.0122
3721.00,0.0121
3720.00,0.0121
3719.00,0.0121
3718.00,0.0120
3717.00,0.0119
3716.00,0.0119
3715.00,0.0120
3714.00,0.0121
3713.00,0.0122
3712.00,0.0124
3711.00,0.0127
3710.00,0.0130
3709.00,0.0130
3708.00,0.0129
3707.00,0.0127
3706.00,0.0126
3705.00,0.0126
3704.00,0.0127
3703.00,0.0129
3702.00,0.0130
3701.00,0.0130
3700.00,0.0131
3699.00,0.0131
3698.00,0.0131
3697.00,0.0130
3696.00,0.0129
3695.00,0.0129
3694.00,0.0129
3693.00,0.0130
3692.00,0.0130
3691.00,0.0130
3690.00,0.0131
3689.00,0.0132
3688.00,0.0132
3687.00,0.0132
3686.00,0.0132
3685.00,0.0131
3684.00,0.0129
3683.00,0.0128
3682.00,0.0126
3681.00,0.0125
3680.00,0.0124
3679.00,0.0124
3678.00,0.0128
3677.00,0.0132
3676.00,0.0133
3675.00,0.0134
3674.00,0.0134
3673.00,0.0137
3672.00,0.0139
3671.00,0.0138
3670.00,0.0136
3669.00,0.0137
3668.00,0.0139
3667.00,0.0140
3666.00,0.0139
3665.00,0.0137
3664.00,0.0135
3663.00,0.0135
3662.00,0.0135
3661.00,0.0135
3660.00,0.0136
3659.00,0.0138
3658.00,0.0141
3657.00,0.0143
3656.00,0.0143
3655.00,0.0145
3654.00,0.0148
3653.00,0.0151
3652.00,0.0151
3651.00,0.0149
3650.00,0.0151
3649.00,0.0158
3648.00,0.0165
3647.00,0.0167
3646.00,0.0166
3645.00,0.0163
3644.00,0.0161
3643.00,0.0159
3642.00,0.0158
3641.00,0.0157
3640.00,0.0157
3639.00,0.0157
3638.00,0.0157
3637.00,0.0158
3636.00,0.0159
3635.00,0.0159
3634.00,0.0158
3633.00,0.0158
3632.00,0.0161
3631.00,0.0165
3630.00,0.0169
3629.00,0.0171
3628.00,0.0174
3627.00,0.0176
3626.00,0.0176
3625.00,0.0174
3624.00,0.0172
3623.00,0.0172
3622.00,0.0173
3621.00,0.0176
3620.00,0.0179
3619.00,0.0181
3618.00,0.0182
3617.00,0.0182
3616.00,0.0182
3615.00,0.0181
3614.00,0.0180
3613.00,0.0179
3612.00,0.0180
3611.00,0.0182
3610.00,0.0184
3609.00,0.0184
3608.00,0.0184
3607.00,0.0184
3606.00,0.0184
3605.00,0.0183
3604.00,0.0182
3603.00,0.0180
3602.00,0.0180
3601.00,0.0180
3600.00,0.0181
3599.00,0.0182
3598.00,0.0183
3597.00,0.0184
3596.00,0.0186
3595.00,0.0187
3594.00,0.0188
3593.00,0.0187
3592.00,0.0187
3591.00,0.0187
3590.00,0.0188
3589.00,0.0190
3588.00,0.0193
3587.00,0.0196
3586.00,0.0198
3585.00,0.0198
3584.00,0.0197
3583.00,0.0195
3582.00,0.0193
3581.00,0.0193
3580.00,0.0193
3579.00,0.0193
3578.00,0.0193
3577.00,0.0193
3576.00,0.0193
3575.00,0.0193
3574.00,0.0193
3573.00,0.0193
3572.00,0.0193
3571.00,0.0194
3570.00,0.0196
3569.00,0.0198
3568.00,0.0201
3567.00,0.0206
3566.00,0.0209
3565.00,0.0210
3564.00,0.0209
3563.00,0.0207
3562.00,0.0205
3561.00,0.0204
3560.00,0.0204
3559.00,0.0203
3558.00,0.0203
3557.00,0.0203
3556.00,0.0203
3555.00,0.0203
3554.00,0.0203
3553.00,0.0204
3552.00,0.0205
3551.00,0.0206
3550.00,0.0207
3549.00,0.0207
3548.00,0.0208
3547.00,0.0209
3546.00,0.0211
3545.00,0.0212
3544.00,0.0213
3543.00,0.0213
3542.00,0.0212
3541.00,0.0212
3540.00,0.0211
3539.00,0.0211
3538.00,0.0211
3537.00,0.0212
3536.00,0.0212
3535.00,0.0213
3534.00,0.0212
3533.00,0.0212
3532.00,0.0212
3531.00,0.0212
3530.00,0.0213
3529.00,0.0214
3528.00,0.0215
3527.00,0.0217
3526.00,0.0219
3525.00,0.0220
3524.00,0.0220
3523.00,0.0221
3522.00,0.0220
3521.00,0.0220
3520.00,0.0220
3519.00,0.0219
3518.00,0.0220
3517.00,0.0220
3516.00,0.0221
3515.00,0.0221
3514.00,0.0221
3513.00,0.0221
3512.00,0.0222
3511.00,0.0223
3510.00,0.0224
3509.00,0.0225
3508.00,0.0226
3507.00,0.0226
3506.00,0.0226
3505.00,0.0227
3504.00,0.0228
3503.00,0.0229
3502.00,0.0230
3501.00,0.0230
3500.00,0.0230
3499.00,0.0230
3498.00,0.0229
3497.00,0.0229
3496.00,0.0229
3495.00,0.0229
3494.00,0.0229
3493.00,0.0229
3492.00,0.0230
3491.00,0.0230
3490.00,0.0230
3489.00,0.0231
3488.00,0.0232
3487.00,0.0233
3486.00,0.0234
3485.00,0.0234
3484.00,0.0235
3483.00,0.0235
3482.00,0.0236
3481.00,0.0236
3480.00,0.0237
3479.00,0.0237
3478.00,0.0237
3477.00,0.0237
3476.00,0.0237
3475.00,0.0237
3474.00,0.0238
3473.00,0.0239
3472.00,0.0239
3471.00,0.0240
3470.00,0.0240
3469.00,0.0240
3468.00,0.0240
3467.00,0.0240
3466.00,0.0240
3465.00,0.0241
3464.00,0.0241
3463.00,0.0242
3462.00,0.0242
3461.00,0.0243
3460.00,0.0243
3459.00,0.0243
3458.00,0.0243
3457.00,0.0244
3456.00,0.0244
3455.00,0.0245
3454.00,0.0246
3453.00,0.0246
3452.00,0.0247
3451.00,0.0246
3450.00,0.0246
3449.00,0.0246
3448.00,0.0247
3447.00,0.0248
3446.00,0.0249
3445.00,0.0249
3444.00,0.0249
3443.00,0.0248
3442.00,0.0248
3441.00,0.0249
3440.00,0.0249
3439.00,0.0249
3438.00,0.0249
3437.00,0.0249
3436.00,0.0250
3435.00,0.0250
3434.00,0.0251
3433.00,0.0251
3432.00,0.0251
3431.00,0.0251
3430.00,0.0251
3429.00,0.0251
3428.00,0.0251
3427.00,0.0251
3426.00,0.0252
3425.00,0.0253
3424.00,0.0254
3423.00,0.0254
3422.00,0.0255
3421.00,0.0256
3420.00,0.0256
3419.00,0.0256
3418.00,0.0257
3417.00,0.0257
3416.00,0.0256
3415.00,0.0256
3414.00,0.0257
3413.00,0.0257
3412.00,0.0258
3411.00,0.0258
3410.00,0.0258
3409.00,0.0258
3408.00,0.0258
3407.00,0.0259
3406.00,0.0259
3405.00,0.0259
3404.00,0.0260
3403.00,0.0260
3402.00,0.0260
3401.00,0.0260
3400.00,0.0260
3399.00,0.0260
3398.00,0.0260
3397.00,0.0260
3396.00,0.0261
3395.00,0.0261
3394.00,0.0261
3393.00,0.0262
3392.00,0.0262
3391.00,0.0263
3390.00,0.0263
3389.00,0.0263
3388.00,0.0263
3387.00,0.0262
3386.00,0.0263
3385.00,0.0263
3384.00,0.0263
3383.00,0.0263
3382.00,0.0263
3381.00,0.0262
3380.00,0.0262
3379.00,0.0262
3378.00,0.0262
3377.00,0.0263
3376.00,0.0264
3375.00,0.0264
3374.00,0.0265
3373.00,0.0265
3372.00,0.0266
3371.00,0.0266
3370.00,0.0266
3369.00,0.0265
3368.00,0.0265
3367.00,0.0265
3366.00,0.0266
3365.00,0.0267
3364.00,0.0267
3363.00,0.0267
3362.00,0.0267
3361.00,0.0267
3360.00,0.0266
3359.00,0.0266
3358.00,0.0267
3357.00,0.0267
3356.00,0.0268
3355.00,0.0267
3354.00,0.0267
3353.00,0.0267
3352.00,0.0267
3351.00,0.0267
3350.00,0.0266
3349.00,0.0266
3348.00,0.0266
3347.00,0.0266
3346.00,0.0266
3345.00,0.0266
3344.00,0.0266
3343.00,0.0267
3342.00,0.0267
3341.00,0.0267
3340.00,0.0267
3339.00,0.0267
3338.00,0.0268
3337.00,0.0268
3336.00,0.0269
3335.00,0.0269
3334.00,0.0269
3333.00,0.0269
3332.00,0.0269
3331.00,0.0269
3330.00,0.0269
3329.00,0.0269
3328.00,0.0269
3327.00,0.0269
3326.00,0.0269
3325.00,0.0269
3324.00,0.0270
3323.00,0.0269
3322.00,0.0269
3321.00,0.0269
3320.00,0.0269
3319.00,0.0268
3318.00,0.0268
3317.00,0.0269
3316.00,0.0269
3315.00,0.0269
3314.00,0.0269
3313.00,0.0269
3312.00,0.0269
3311.00,0.0270
3310.00,0.0270
3309.00,0.0270
3308.00,0.0270
3307.00,0.0270
3306.00,0.0271
3305.00,0.0271
3304.00,0.0271
3303.00,0.0271
3302.00,0.0271
3301.00,0.0270
3300.00,0.0270
3299.00,0.0270
3298.00,0.0270
3297.00,0.0271
3296.00,0.0272
3295.00,0.0272
3294.00,0.0271
3293.00,0.0271
3292.00,0.0271
3291.00,0.0271
3290.00,0.0271
3289.00,0.0271
3288.00,0.0271
3287.00,0.0271
3286.00,0.0271
3285.00,0.0271
3284.00,0.0271
3283.00,0.0271
3282.00,0.0271
3281.00,0.0271
3280.00,0.0271
3279.00,0.0271
3278.00,0.0271
3277.00,0.0272
3276.00,0.0273
3275.00,0.0273
3274.00,0.0274
3273.00,0.0274
3272.00,0.0274
3271.00,0.0273
3270.00,0.0273
3269.00,0.0273
3268.00,0.0272
3267.00,0.0272
3266.00,0.0272
3265.00,0.0272
3264.00,0.0273
3263.00,0.0273
3262.00,0.0273
3261.00,0.0273
3260.00,0.0273
3259.00,0.0273
3258.00,0.0274
3257.00,0.0274
3256.00,0.0274
3255.00,0.0274
3254.00,0.0274
3253.00,0.0274
3252.00,0.0273
3251.00,0.0273
3250.00,0.0273
3249.00,0.0273
3248.00,0.0273
3247.00,0.0274
3246.00,0.0274
3245.00,0.0275
3244.00,0.0275
3243.00,0.0275
3242.00,0.0274
3241.00,0.0274
3240.00,0.0274
3239.00,0.0274
3238.00,0.0274
3237.00,0.0275
3236.00,0.0275
3235.00,0.0275
3234.00,0.0276
3233.00,0.0276
3232.00,0.0276
3231.00,0.0277
3230.00,0.0277
3229.00,0.0276
3228.00,0.0276
3227.00,0.0276
3226.00,0.0276
3225.00,0.0276
3224.00,0.0276
3223.00,0.0276
3222.00,0.0276
3221.00,0.0276
3220.00,0.0276
3219.00,0.0276
3218.00,0.0276
3217.00,0.0275
3216.00,0.0275
3215.00,0.0275
3214.00,0.0275
3213.00,0.0275
3212.00,0.0275
3211.00,0.0275
3210.00,0.0275
3209.00,0.0275
3208.00,0.0276
3207.00,0.0276
3206.00,0.0276
3205.00,0.0276
3204.00,0.0276
3203.00,0.0276
3202.00,0.0276
3201.00,0.0276
3200.00,0.0276
3199.00,0.0276
3198.00,0.0275
3197.00,0.0275
3196.00,0.0274
3195.00,0.0274
3194.00,0.0274
3193.00,0.0274
3192.00,0.0274
3191.00,0.0274
3190.00,0.0274
3189.00,0.0273
3188.00,0.0273
3187.00,0.0274
3186.00,0.0274
3185.00,0.0275
3184.00,0.0275
3183.00,0.0274
3182.00,0.0274
3181.00,0.0274
3180.00,0.0274
3179.00,0.0273
3178.00,0.0273
3177.00,0.0273
3176.00,0.0273
3175.00,0.0273
3174.00,0.0273
3173.00,0.0273
3172.00,0.0273
3171.00,0.0273
3170.00,0.0273
3169.00,0.0272
3168.00,0.0272
3167.00,0.0271
3166.00,0.0271
3165.00,0.0272
3164.00,0.0272
3163.00,0.0272
3162.00,0.0271
3161.00,0.0271
3160.00,0.0271
3159.00,0.0271
3158.00,0.0271
3157.00,0.0271
3156.00,0.0270
3155.00,0.0270
3154.00,0.0270
3153.00,0.0269
3152.00,0.0269
3151.00,0.0269
3150.00,0.0269
3149.00,0.0269
3148.00,0.0269
3147.00,0.0269
3146.00,0.0269
3145.00,0.0269
3144.00,0.0268
3143.00,0.0268
3142.00,0.0268
3141.00,0.0268
3140.00,0.0268
3139.00,0.0267
3138.00,0.0267
3137.00,0.0267
3136.00,0.0267
3135.00,0.0267
3134.00,0.0267
3133.00,0.0267
3132.00,0.0267
3131.00,0.0267
3130.00,0.0267
3129.00,0.0267
3128.00,0.0267
3127.00,0.0267
3126.00,0.0266
3125.00,0.0266
3124.00,0.0266
3123.00,0.0265
3122.00,0.0265
3121.00,0.0265
3120.00,0.0265
3119.00,0.0265
3118.00,0.0265
3117.00,0.0265
3116.00,0.0265
3115.00,0.0265
3114.00,0.0265
3113.00,0.0265
3112.00,0.0265
3111.00,0.0265
3110.00,0.0264
3109.00,0.0264
3108.00,0.0264
3107.00,0.0263
3106.00,0.0263
3105.00,0.0263
3104.00,0.0263
3103.00,0.0263
3102.00,0.0263
3101.00,0.0263
3100.00,0.0263
3099.00,0.0263
3098.00,0.0263
3097.00,0.0263
3096.00,0.0262
3095.00,0.0262
3094.00,0.0262
3093.00,0.0262
3092.00,0.0261
3091.00,0.0261
3090.00,0.0261
3089.00,0.0260
3088.00,0.0261
3087.00,0.0261
3086.00,0.0261
3085.00,0.0260
3084.00,0.0260
3083.00,0.0260
3082.00,0.0260
3081.00,0.0260
3080.00,0.0260
3079.00,0.0260
3078.00,0.0260
3077.00,0.0259
3076.00,0.0259
3075.00,0.0259
3074.00,0.0258
3073.00,0.0258
3072.00,0.0259
3071.00,0.0259
3070.00,0.0259
3069.00,0.0258
3068.00,0.0258
3067.00,0.0258
3066.00,0.0258
3065.00,0.0258
3064.00,0.0258
3063.00,0.0258
3062.00,0.0257
3061.00,0.0256
3060.00,0.0256
3059.00,0.0256
3058.00,0.0256
3057.00,0.0256
3056.00,0.0256
3055.00,0.0256
3054.00,0.0256
3053.00,0.0256
3052.00,0.0256
3051.00,0.0255
3050.00,0.0254
3049.00,0.0254
3048.00,0.0253
3047.00,0.0253
3046.00,0.0253
3045.00,0.0253
3044.00,0.0254
3043.00,0.0254
3042.00,0.0253
3041.00,0.0253
3040.00,0.0252
3039.00,0.0252
3038.00,0.0252
3037.00,0.0252
3036.00,0.0252
3035.00,0.0251
3034.00,0.0251
3033.00,0.0251
3032.00,0.0251
3031.00,0.0251
3030.00,0.0251
3029.00,0.0250
3028.00,0.0249
3027.00,0.0248
3026.00,0.0248
3025.00,0.0248
3024.00,0.0248
3023.00,0.0248
3022.00,0.0248
3021.00,0.0247
3020.00,0.0247
3019.00,0.0247
3018.00,0.0246
3017.00,0.0246
3016.00,0.0246
3015.00,0.0246
3014.00,0.0246
3013.00,0.0246
3012.00,0.0245
3011.00,0.0245
3010.00,0.0245
3009.00,0.0244
3008.00,0.0244
3007.00,0.0243
3006.00,0.0243
3005.00,0.0242
3004.00,0.0242
3003.00,0.0241
3002.00,0.0241
3001.00,0.0240
3000.00,0.0239
2999.00,0.0238
2998.00,0.0238
2997.00,0.0237
2996.00,0.0237
2995.00,0.0237
2994.00,0.0237
2993.00,0.0237
2992.00,0.0236
2991.00,0.0236
2990.00,0.0235
2989.00,0.0234
2988.00,0.0234
2987.00,0.0234
2986.00,0.0234
2985.00,0.0233
2984.00,0.0232
2983.00,0.0231
2982.00,0.0230
2981.00,0.0230
2980.00,0.0229
2979.00,0.0230
2978.00,0.0230
2977.00,0.0231
2976.00,0.0230
2975.00,0.0230
2974.00,0.0229
2973.00,0.0228
2972.00,0.0228
2971.00,0.0227
2970.00,0.0227
2969.00,0.0227
2968.00,0.0226
2967.00,0.0226
2966.00,0.0226
2965.00,0.0225
2964.00,0.0225
2963.00,0.0224
2962.00,0.0224
2961.00,0.0223
2960.00,0.0222
2959.00,0.0222
2958.00,0.0222
2957.00,0.0221
2956.00,0.0221
2955.00,0.0222
2954.00,0.0222
2953.00,0.0223
2952.00,0.0223
2951.00,0.0223
2950.00,0.0223
2949.00,0.0223
2948.00,0.0223
2947.00,0.0223
2946.00,0.0223
2945.00,0.0223
2944.00,0.0223
2943.00,0.0222
2942.00,0.0222
2941.00,0.0221
2940.00,0.0220
2939.00,0.0218
2938.00,0.0217
2937.00,0.0216
2936.00,0.0216
2935.00,0.0215
2934.00,0.0214
2933.00,0.0213
2932.00,0.0212
2931.00,0.0211
2930.00,0.0210
2929.00,0.0208
2928.00,0.0207
2927.00,0.0206
2926.00,0.0205
2925.00,0.0204
2924.00,0.0204
2923.00,0.0204
2922.00,0.0204
2921.00,0.0204
2920.00,0.0204
2919.00,0.0203
2918.00,0.0202
2917.00,0.0202
2916.00,0.0203
2915.00,0.0205
2914.00,0.0207
2913.00,0.0209
2912.00,0.0210
2911.00,0.0211
2910.00,0.0212
2909.00,0.0213
2908.00,0.0214
2907.00,0.0214
2906.00,0.0214
2905.00,0.0214
2904.00,0.0215
2903.00,0.0215
2902.00,0.0215
2901.00,0.0215
2900.00,0.0215
2899.00,0.0215
2898.00,0.0215
2897.00,0.0214
2896.00,0.0214
2895.00,0.0214
2894.00,0.0214
2893.00,0.0214
2892.00,0.0215
2891.00,0.0215
2890.00,0.0215
2889.00,0.0215
2888.00,0.0215
2887.00,0.0215
2886.00,0.0215
2885.00,0.0216
2884.00,0.0216
2883.00,0.0216
2882.00,0.0216
2881.00,0.0216
2880.00,0.0216
2879.00,0.0216
2878.00,0.0215
2877.00,0.0215
2876.00,0.0214
2875.00,0.0213
2874.00,0.0213
2873.00,0.0212
2872.00,0.0212
2871.00,0.0212
2870.00,0.0212
2869.00,0.0212
2868.00,0.0211
2867.00,0.0210
2866.00,0.0210
2865.00,0.0209
2864.00,0.0209
2863.00,0.0209
2862.00,0.0209
2861.00,0.0209
2860.00,0.0208
2859.00,0.0207
2858.00,0.0206
2857.00,0.0206
2856.00,0.0205
2855.00,0.0204
2854.00,0.0204
2853.00,0.0204
2852.00,0.0203
2851.00,0.0203
2850.00,0.0203
2849.00,0.0203
2848.00,0.0204
2847.00,0.0205
2846.00,0.0206
2845.00,0.0207
2844.00,0.0208
2843.00,0.0209
2842.00,0.0209
2841.00,0.0210
2840.00,0.0211
2839.00,0.0211
2838.00,0.0211
2837.00,0.0211
2836.00,0.0211
2835.00,0.0211
2834.00,0.0211
2833.00,0.0211
2832.00,0.0211
2831.00,0.0211
2830.00,0.0211
2829.00,0.0211
2828.00,0.0211
2827.00,0.0211
2826.00,0.0211
2825.00,0.0210
2824.00,0.0210
2823.00,0.0210
2822.00,0.0209
2821.00,0.0209
2820.00,0.0210
2819.00,0.0210
2818.00,0.0210
2817.00,0.0209
2816.00,0.0209
2815.00,0.0209
2814.00,0.0209
2813.00,0.0209
2812.00,0.0208
2811.00,0.0208
2810.00,0.0208
2809.00,0.0208
2808.00,0.0207
2807.00,0.0207
2806.00,0.0207
2805.00,0.0207
2804.00,0.0208
2803.00,0.0208
2802.00,0.0208
2801.00,0.0207
2800.00,0.0207
2799.00,0.0206
2798.00,0.0206
2797.00,0.0206
2796.00,0.0206
2795.00,0.0205
2794.00,0.0205
2793.00,0.0205
2792.00,0.0205
2791.00,0.0205
2790.00,0.0205
2789.00,0.0205
2788.00,0.0205
2787.00,0.0205
2786.00,0.0205
2785.00,0.0205
2784.00,0.0205
2783.00,0.0205
2782.00,0.0205
2781.00,0.0204
2780.00,0.0203
2779.00,0.0203
2778.00,0.0203
2777.00,0.0203
2776.00,0.0203
2775.00,0.0204
2774.00,0.0203
2773.00,0.0203
2772.00,0.0203
2771.00,0.0202
2770.00,0.0202
2769.00,0.0202
2768.00,0.0202
2767.00,0.0202
2766.00,0.0202
2765.00,0.0202
2764.00,0.0202
2763.00,0.0201
2762.00,0.0201
2761.00,0.0201
2760.00,0.0201
2759.00,0.0201
2758.00,0.0201
2757.00,0.0201
2756.00,0.0201
2755.00,0.0201
2754.00,0.0200
2753.00,0.0200
2752.00,0.0200
2751.00,0.0200
2750.00,0.0200
2749.00,0.0200
2748.00,0.0200
2747.00,0.0200
2746.00,0.0200
2745.00,0.0199
2744.00,0.0198
2743.00,0.0198
2742.00,0.0198
2741.00,0.0198
2740.00,0.0198
2739.00,0.0198
2738.00,0.0198
2737.00,0.0198
2736.00,0.0197
2735.00,0.0197
2734.00,0.0197
2733.00,0.0197
2732.00,0.0197
2731.00,0.0197
2730.00,0.0197
2729.00,0.0197
2728.00,0.0197
2727.00,0.0196
2726.00,0.0196
2725.00,0.0196
2724.00,0.0196
2723.00,0.0195
2722.00,0.0195
2721.00,0.0196
2720.00,0.0196
2719.00,0.0196
2718.00,0.0195
2717.00,0.0195
2716.00,0.0195
2715.00,0.0195
2714.00,0.0195
2713.00,0.0195
2712.00,0.0195
2711.00,0.0195
2710.00,0.0195
2709.00,0.0194
2708.00,0.0194
2707.00,0.0194
2706.00,0.0193
2705.00,0.0194
2704.00,0.0194
2703.00,0.0194
2702.00,0.0194
2701.00,0.0194
2700.00,0.0193
2699.00,0.0193
2698.00,0.0193
2697.00,0.0193
2696.00,0.0193
2695.00,0.0193
2694.00,0.0193
2693.00,0.0192
2692.00,0.0192
2691.00,0.0192
2690.00,0.0192
2689.00,0.0192
2688.00,0.0192
2687.00,0.0192
2686.00,0.0192
2685.00,0.0191
2684.00,0.0191
2683.00,0.0191
2682.00,0.0191
2681.00,0.0191
2680.00,0.0191
2679.00,0.0192
2678.00,0.0192
2677.00,0.0192
2676.00,0.0191
2675.00,0.0191
2674.00,0.0191
2673.00,0.0191
2672.00,0.0190
2671.00,0.0190
2670.00,0.0190
2669.00,0.0189
2668.00,0.0189
2667.00,0.0189
2666.00,0.0190
2665.00,0.0190
2664.00,0.0190
2663.00,0.0190
2662.00,0.0190
2661.00,0.0191
2660.00,0.0191
2659.00,0.0191
2658.00,0.0190
2657.00,0.0190
2656.00,0.0190
2655.00,0.0191
2654.00,0.0191
2653.00,0.0190
2652.00,0.0190
2651.00,0.0190
2650.00,0.0190
2649.00,0.0190
2648.00,0.0191
2647.00,0.0191
2646.00,0.0191
2645.00,0.0191
2644.00,0.0191
2643.00,0.0192
2642.00,0.0192
2641.00,0.0192
2640.00,0.0192
2639.00,0.0191
2638.00,0.0191
2637.00,0.0191
2636.00,0.0191
2635.00,0.0191
2634.00,0.0191
2633.00,0.0191
2632.00,0.0190
2631.00,0.0190
2630.00,0.0190
2629.00,0.0190
2628.00,0.0190
2627.00,0.0191
2626.00,0.0191
2625.00,0.0191
2624.00,0.0191
2623.00,0.0191
2622.00,0.0191
2621.00,0.0190
2620.00,0.0190
2619.00,0.0190
2618.00,0.0190
2617.00,0.0191
2616.00,0.0191
2615.00,0.0191
2614.00,0.0191
2613.00,0.0191
2612.00,0.0191
2611.00,0.0190
2610.00,0.0190
2609.00,0.0189
2608.00,0.0189
2607.00,0.0189
2606.00,0.0189
2605.00,0.0190
2604.00,0.0190
2603.00,0.0190
2602.00,0.0190
2601.00,0.0190
2600.00,0.0190
2599.00,0.0190
2598.00,0.0190
2597.00,0.0190
2596.00,0.0189
2595.00,0.0189
2594.00,0.0189
2593.00,0.0189
2592.00,0.0190
2591.00,0.0190
2590.00,0.0190
2589.00,0.0190
2588.00,0.0189
2587.00,0.0189
2586.00,0.0189
2585.00,0.0188
2584.00,0.0188
2583.00,0.0189
2582.00,0.0189
2581.00,0.0189
2580.00,0.0189
2579.00,0.0189
2578.00,0.0189
2577.00,0.0189
2576.00,0.0189
2575.00,0.0189
2574.00,0.0189
2573.00,0.0188
2572.00,0.0188
2571.00,0.0187
2570.00,0.0187
2569.00,0.0188
2568.00,0.0188
2567.00,0.0188
2566.00,0.0188
2565.00,0.0189
2564.00,0.0189
2563.00,0.0189
2562.00,0.0188
2561.00,0.0188
2560.00,0.0188
2559.00,0.0188
2558.00,0.0188
2557.00,0.0189
2556.00,0.0189
2555.00,0.0189
2554.00,0.0189
2553.00,0.0189
2552.00,0.0189
2551.00,0.0189
2550.00,0.0189
2549.00,0.0188
2548.00,0.0188
2547.00,0.0187
2546.00,0.0187
2545.00,0.0186
2544.00,0.0186
2543.00,0.0187
2542.00,0.0187
2541.00,0.0188
2540.00,0.0188
2539.00,0.0188
2538.00,0.0188
2537.00,0.0187
2536.00,0.0187
2535.00,0.0188
2534.00,0.0188
2533.00,0.0188
2532.00,0.0188
2531.00,0.0187
2530.00,0.0187
2529.00,0.0188
2528.00,0.0188
2527.00,0.0188
2526.00,0.0188
2525.00,0.0188
2524.00,0.0188
2523.00,0.0187
2522.00,0.0187
2521.00,0.0187
2520.00,0.0187
2519.00,0.0187
2518.00,0.0186
2517.00,0.0186
2516.00,0.0185
2515.00,0.0185
2514.00,0.0186
2513.00,0.0186
2512.00,0.0187
2511.00,0.0187
2510.00,0.0186
2509.00,0.0186
2508.00,0.0185
2507.00,0.0184
2506.00,0.0184
2505.00,0.0184
2504.00,0.0184
2503.00,0.0185
2502.00,0.0185
2501.00,0.0185
2500.00,0.0185
2499.00,0.0184
2498.00,0.0184
2497.00,0.0184
2496.00,0.0184
2495.00,0.0184
2494.00,0.0183
2493.00,0.0183
2492.00,0.0183
2491.00,0.0183
2490.00,0.0183
2489.00,0.0182
2488.00,0.0182
2487.00,0.0182
2486.00,0.0182
2485.00,0.0182
2484.00,0.0182
2483.00,0.0182
2482.00,0.0183
2481.00,0.0184
2480.00,0.0184
2479.00,0.0183
2478.00,0.0183
2477.00,0.0182
2476.00,0.0182
2475.00,0.0182
2474.00,0.0182
2473.00,0.0182
2472.00,0.0182
2471.00,0.0182
2470.00,0.0182
2469.00,0.0182
2468.00,0.0181
2467.00,0.0181
2466.00,0.0181
2465.00,0.0181
2464.00,0.0181
2463.00,0.0180
2462.00,0.0180
2461.00,0.0180
2460.00,0.0180
2459.00,0.0180
2458.00,0.0181
2457.00,0.0181
2456.00,0.0181
2455.00,0.0180
2454.00,0.0180
2453.00,0.0180
2452.00,0.0180
2451.00,0.0180
2450.00,0.0180
2449.00,0.0181
2448.00,0.0181
2447.00,0.0181
2446.00,0.0180
2445.00,0.0180
2444.00,0.0179
2443.00,0.0179
2442.00,0.0178
2441.00,0.0178
2440.00,0.0178
2439.00,0.0178
2438.00,0.0177
2437.00,0.0177
2436.00,0.0177
2435.00,0.0177
2434.00,0.0177
2433.00,0.0177
2432.00,0.0177
2431.00,0.0177
2430.00,0.0177
2429.00,0.0177
2428.00,0.0176
2427.00,0.0176
2426.00,0.0176
2425.00,0.0177
2424.00,0.0177
2423.00,0.0177
2422.00,0.0177
2421.00,0.0176
2420.00,0.0176
2419.00,0.0176
2418.00,0.0175
2417.00,0.0175
2416.00,0.0176
2415.00,0.0176
2414.00,0.0176
2413.00,0.0176
2412.00,0.0176
2411.00,0.0176
2410.00,0.0176
2409.00,0.0175
2408.00,0.0175
2407.00,0.0175
2406.00,0.0175
2405.00,0.0174
2404.00,0.0174
2403.00,0.0174
2402.00,0.0174
2401.00,0.0173
2400.00,0.0173
2399.00,0.0172
2398.00,0.0172
2397.00,0.0172
2396.00,0.0172
2395.00,0.0172
2394.00,0.0172
2393.00,0.0172
2392.00,0.0172
2391.00,0.0172
2390.00,0.0172
2389.00,0.0172
2388.00,0.0172
2387.00,0.0172
2386.00,0.0172
2385.00,0.0172
2384.00,0.0172
2383.00,0.0171
2382.00,0.0171
2381.00,0.0170
2380.00,0.0169
2379.00,0.0167
2378.00,0.0165
2377.00,0.0163
2376.00,0.0161
2375.00,0.0160
2374.00,0.0159
2373.00,0.0160
2372.00,0.0161
2371.00,0.0163
2370.00,0.0163
2369.00,0.0163
2368.00,0.0162
2367.00,0.0162
2366.00,0.0161
2365.00,0.0160
2364.00,0.0158
2363.00,0.0157
2362.00,0.0157
2361.00,0.0157
2360.00,0.0158
2359.00,0.0158
2358.00,0.0159
2357.00,0.0160
2356.00,0.0162
2355.00,0.0163
2354.00,0.0164
2353.00,0.0164
2352.00,0.0162
2351.00,0.0160
2350.00,0.0158
2349.00,0.0159
2348.00,0.0160
2347.00,0.0159
2346.00,0.0156
2345.00,0.0153
2344.00,0.0149
2343.00,0.0148
2342.00,0.0149
2341.00,0.0151
2340.00,0.0152
2339.00,0.0153
2338.00,0.0155
2337.00,0.0157
2336.00,0.0159
2335.00,0.0160
2334.00,0.0161
2333.00,0.0162
2332.00,0.0163
2331.00,0.0163
2330.00,0.0164
2329.00,0.0165
2328.00,0.0166
2327.00,0.0168
2326.00,0.0170
2325.00,0.0171
2324.00,0.0172
2323.00,0.0172
2322.00,0.0171
2321.00,0.0170
2320.00,0.0168
2319.00,0.0167
2318.00,0.0168
2317.00,0.0168
2316.00,0.0169
2315.00,0.0169
2314.00,0.0169
2313.00,0.0169
2312.00,0.0169
2311.00,0.0168
2310.00,0.0167
2309.00,0.0166
2308.00,0.0165
2307.00,0.0165
2306.00,0.0165
2305.00,0.0165
2304.00,0.0166
2303.00,0.0166
2302.00,0.0165
2301.00,0.0165
2300.00,0.0164
2299.00,0.0163
2298.00,0.0163
2297.00,0.0163
2296.00,0.0163
2295.00,0.0163
2294.00,0.0163
2293.00,0.0163
2292.00,0.0163
2291.00,0.0164
2290.00,0.0164
2289.00,0.0164
2288.00,0.0165
2287.00,0.0165
2286.00,0.0165
2285.00,0.0165
2284.00,0.0165
2283.00,0.0165
2282.00,0.0165
2281.00,0.0165
2280.00,0.0165
2279.00,0.0165
2278.00,0.0165
2277.00,0.0165
2276.00,0.0164
2275.00,0.0164
2274.00,0.0164
2273.00,0.0164
2272.00,0.0164
2271.00,0.0163
2270.00,0.0162
2269.00,0.0162
2268.00,0.0162
2267.00,0.0162
2266.00,0.0162
2265.00,0.0162
2264.00,0.0162
2263.00,0.0161
2262.00,0.0161
2261.00,0.0161
2260.00,0.0162
2259.00,0.0163
2258.00,0.0164
2257.00,0.0165
2256.00,0.0164
2255.00,0.0163
2254.00,0.0162
2253.00,0.0161
2252.00,0.0160
2251.00,0.0160
2250.00,0.0161
2249.00,0.0161
2248.00,0.0162
2247.00,0.0161
2246.00,0.0160
2245.00,0.0159
2244.00,0.0159
2243.00,0.0159
2242.00,0.0160
2241.00,0.0160
2240.00,0.0160
2239.00,0.0160
2238.00,0.0161
2237.00,0.0161
2236.00,0.0161
2235.00,0.0162
2234.00,0.0162
2233.00,0.0161
2232.00,0.0161
2231.00,0.0161
2230.00,0.0161
2229.00,0.0162
2228.00,0.0162
2227.00,0.0163
2226.00,0.0163
2225.00,0.0162
2224.00,0.0161
2223.00,0.0161
2222.00,0.0161
2221.00,0.0161
2220.00,0.0162
2219.00,0.0162
2218.00,0.0162
2217.00,0.0162
2216.00,0.0163
2215.00,0.0163
2214.00,0.0163
2213.00,0.0163
2212.00,0.0162
2211.00,0.0160
2210.00,0.0159
2209.00,0.0158
2208.00,0.0159
2207.00,0.0160
2206.00,0.0161
2205.00,0.0163
2204.00,0.0165
2203.00,0.0165
2202.00,0.0165
2201.00,0.0164
2200.00,0.0164
2199.00,0.0163
2198.00,0.0161
2197.00,0.0160
2196.00,0.0160
2195.00,0.0160
2194.00,0.0161
2193.00,0.0161
2192.00,0.0161
2191.00,0.0161
2190.00,0.0161
2189.00,0.0160
2188.00,0.0160
2187.00,0.0159
2186.00,0.0158
2185.00,0.0158
2184.00,0.0159
2183.00,0.0160
2182.00,0.0161
2181.00,0.0162
2180.00,0.0161
2179.00,0.0160
2178.00,0.0159
2177.00,0.0159
2176.00,0.0158
2175.00,0.0158
2174.00,0.0159
2173.00,0.0160
2172.00,0.0161
2171.00,0.0162
2170.00,0.0161
2169.00,0.0160
2168.00,0.0158
2167.00,0.0157
2166.00,0.0158
2165.00,0.0159
2164.00,0.0161
2163.00,0.0163
2162.00,0.0163
2161.00,0.0162
2160.00,0.0159
2159.00,0.0155
2158.00,0.0152
2157.00,0.0151
2156.00,0.0152
2155.00,0.0153
2154.00,0.0155
2153.00,0.0155
2152.00,0.0155
2151.00,0.0154
2150.00,0.0154
2149.00,0.0153
2148.00,0.0152
2147.00,0.0151
2146.00,0.0150
2145.00,0.0150
2144.00,0.0151
2143.00,0.0152
2142.00,0.0153
2141.00,0.0153
2140.00,0.0152
2139.00,0.0150
2138.00,0.0148
2137.00,0.0147
2136.00,0.0147
2135.00,0.0147
2134.00,0.0147
2133.00,0.0147
2132.00,0.0147
2131.00,0.0147
2130.00,0.0147
2129.00,0.0145
2128.00,0.0144
2127.00,0.0144
2126.00,0.0144
2125.00,0.0145
2124.00,0.0146
2123.00,0.0147
2122.00,0.0148
2121.00,0.0150
2120.00,0.0151
2119.00,0.0151
2118.00,0.0151
2117.00,0.0151
2116.00,0.0150
2115.00,0.0150
2114.00,0.0148
2113.00,0.0147
2112.00,0.0147
2111.00,0.0147
2110.00,0.0147
2109.00,0.0147
2108.00,0.0147
2107.00,0.0147
2106.00,0.0146
2105.00,0.0146
2104.00,0.0146
2103.00,0.0147
2102.00,0.0146
2101.00,0.0146
2100.00,0.0146
2099.00,0.0147
2098.00,0.0148
2097.00,0.0148
2096.00,0.0147
2095.00,0.0146
2094.00,0.0145
2093.00,0.0145
2092.00,0.0145
2091.00,0.0145
2090.00,0.0146
2089.00,0.0146
2088.00,0.0146
2087.00,0.0145
2086.00,0.0145
2085.00,0.0145
2084.00,0.0144
2083.00,0.0143
2082.00,0.0143
2081.00,0.0143
2080.00,0.0143
2079.00,0.0144
2078.00,0.0144
2077.00,0.0145
2076.00,0.0146
2075.00,0.0146
2074.00,0.0145
2073.00,0.0144
2072.00,0.0143
2071.00,0.0144
2070.00,0.0144
2069.00,0.0145
2068.00,0.0146
2067.00,0.0145
2066.00,0.0145
2065.00,0.0144
2064.00,0.0144
2063.00,0.0144
2062.00,0.0145
2061.00,0.0146
2060.00,0.0145
2059.00,0.0144
2058.00,0.0144
2057.00,0.0144
2056.00,0.0145
2055.00,0.0146
2054.00,0.0146
2053.00,0.0147
2052.00,0.0147
2051.00,0.0146
2050.00,0.0146
2049.00,0.0146
2048.00,0.0145
2047.00,0.0145
2046.00,0.0146
2045.00,0.0147
2044.00,0.0147
2043.00,0.0145
2042.00,0.0145
2041.00,0.0145
2040.00,0.0146
2039.00,0.0146
2038.00,0.0147
2037.00,0.0146
2036.00,0.0145
2035.00,0.0144
2034.00,0.0143
2033.00,0.0143
2032.00,0.0143
2031.00,0.0143
2030.00,0.0144
2029.00,0.0145
2028.00,0.0144
2027.00,0.0143
2026.00,0.0142
2025.00,0.0141
2024.00,0.0140
2023.00,0.0139
2022.00,0.0139
2021.00,0.0140
2020.00,0.0142
2019.00,0.0142
2018.00,0.0142
2017.00,0.0141
2016.00,0.0140
2015.00,0.0140
2014.00,0.0141
2013.00,0.0141
2012.00,0.0141
2011.00,0.0139
2010.00,0.0137
2009.00,0.0136
2008.00,0.0135
2007.00,0.0135
2006.00,0.0136
2005.00,0.0137
2004.00,0.0138
2003.00,0.0139
2002.00,0.0140
2001.00,0.0140
2000.00,0.0140
1999.00,0.0139
1998.00,0.0138
1997.00,0.0138
1996.00,0.0139
1995.00,0.0141
1994.00,0.0143
1993.00,0.0145
1992.00,0.0144
1991.00,0.0142
1990.00,0.0140
1989.00,0.0138
1988.00,0.0136
1987.00,0.0136
1986.00,0.0136
1985.00,0.0136
1984.00,0.0137
1983.00,0.0139
1982.00,0.0140
1981.00,0.0142
1980.00,0.0142
1979.00,0.0141
1978.00,0.0140
1977.00,0.0140
1976.00,0.0140
1975.00,0.0140
1974.00,0.0140
1973.00,0.0139
1972.00,0.0138
1971.00,0.0138
1970.00,0.0139
1969.00,0.0139
1968.00,0.0139
1967.00,0.0137
1966.00,0.0134
1965.00,0.0132
1964.00,0.0132
1963.00,0.0133
1962.00,0.0134
1961.00,0.0135
1960.00,0.0134
1959.00,0.0132
1958.00,0.0130
1957.00,0.0127
1956.00,0.0124
1955.00,0.0122
1954.00,0.0122
1953.00,0.0123
1952.00,0.0125
1951.00,0.0125
1950.00,0.0125
1949.00,0.0126
1948.00,0.0126
1947.00,0.0126
1946.00,0.0127
1945.00,0.0128
1944.00,0.0128
1943.00,0.0127
1942.00,0.0126
1941.00,0.0125
1940.00,0.0125
1939.00,0.0125
1938.00,0.0125
1937.00,0.0124
1936.00,0.0123
1935.00,0.0123
1934.00,0.0122
1933.00,0.0122
1932.00,0.0123
1931.00,0.0123
1930.00,0.0123
1929.00,0.0123
1928.00,0.0123
1927.00,0.0123
1926.00,0.0124
1925.00,0.0126
1924.00,0.0126
1923.00,0.0125
1922.00,0.0123
1921.00,0.0122
1920.00,0.0122
1919.00,0.0121
1918.00,0.0120
1917.00,0.0118
1916.00,0.0117
1915.00,0.0116
1914.00,0.0115
1913.00,0.0115
1912.00,0.0116
1911.00,0.0116
1910.00,0.0116
1909.00,0.0116
1908.00,0.0116
1907.00,0.0115
1906.00,0.0115
1905.00,0.0116
1904.00,0.0116
1903.00,0.0115
1902.00,0.0114
1901.00,0.0114
1900.00,0.0113
1899.00,0.0113
1898.00,0.0113
1897.00,0.0114
1896.00,0.0113
1895.00,0.0113
1894.00,0.0112
1893.00,0.0112
1892.00,0.0113
1891.00,0.0112
1890.00,0.0111
1889.00,0.0109
1888.00,0.0109
1887.00,0.0108
1886.00,0.0108
1885.00,0.0108
1884.00,0.0108
1883.00,0.0108
1882.00,0.0108
1881.00,0.0107
1880.00,0.0107
1879.00,0.0106
1878.00,0.0105
1877.00,0.0105
1876.00,0.0104
1875.00,0.0104
1874.00,0.0104
1873.00,0.0106
1872.00,0.0107
1871.00,0.0108
1870.00,0.0106
1869.00,0.0103
1868.00,0.0101
1867.00,0.0100
1866.00,0.0101
1865.00,0.0102
1864.00,0.0102
1863.00,0.0101
1862.00,0.0101
1861.00,0.0101
1860.00,0.0100
1859.00,0.0100
1858.00,0.0099
1857.00,0.0099
1856.00,0.0099
1855.00,0.0099
1854.00,0.0099
1853.00,0.0099
1852.00,0.0098
1851.00,0.0097
1850.00,0.0097
1849.00,0.0097
1848.00,0.0097
1847.00,0.0098
1846.00,0.0098
1845.00,0.0096
1844.00,0.0093
1843.00,0.0091
1842.00,0.0091
1841.00,0.0093
1840.00,0.0094
1839.00,0.0094
1838.00,0.0093
1837.00,0.0092
1836.00,0.0091
1835.00,0.0091
1834.00,0.0091
1833.00,0.0093
1832.00,0.0094
1831.00,0.0093
1830.00,0.0091
1829.00,0.0090
1828.00,0.0090
1827.00,0.0091
1826.00,0.0091
1825.00,0.0089
1824.00,0.0088
1823.00,0.0087
1822.00,0.0087
1821.00,0.0087
1820.00,0.0087
1819.00,0.0086
1818.00,0.0086
1817.00,0.0085
1816.00,0.0085
1815.00,0.0085
1814.00,0.0085
1813.00,0.0085
1812.00,0.0085
1811.00,0.0084
1810.00,0.0083
1809.00,0.0082
1808.00,0.0082
1807.00,0.0083
1806.00,0.0083
1805.00,0.0084
1804.00,0.0085
1803.00,0.0086
1802.00,0.0085
1801.00,0.0085
1800.00,0.0085
1799.00,0.0084
1798.00,0.0084
1797.00,0.0086
1796.00,0.0088
1795.00,0.0089
1794.00,0.0089
1793.00,0.0088
1792.00,0.0087
1791.00,0.0087
1790.00,0.0088
1789.00,0.0089
1788.00,0.0090
1787.00,0.0090
1786.00,0.0090
1785.00,0.0091
1784.00,0.0092
1783.00,0.0094
1782.00,0.0096
1781.00,0.0097
1780.00,0.0097
1779.00,0.0098
1778.00,0.0100
1777.00,0.0102
1776.00,0.0105
1775.00,0.0108
1774.00,0.0109
1773.00,0.0108
1772.00,0.0108
1771.00,0.0108
1770.00,0.0108
1769.00,0.0109
1768.00,0.0110
1767.00,0.0111
1766.00,0.0112
1765.00,0.0115
1764.00,0.0118
1763.00,0.0119
1762.00,0.0118
1761.00,0.0118
1760.00,0.0119
1759.00,0.0121
1758.00,0.0123
1757.00,0.0123
1756.00,0.0123
1755.00,0.0124
1754.00,0.0125
1753.00,0.0126
1752.00,0.0127
1751.00,0.0127
1750.00,0.0129
1749.00,0.0132
1748.00,0.0134
1747.00,0.0136
1746.00,0.0138
1745.00,0.0139
1744.00,0.0142
1743.00,0.0144
1742.00,0.0146
1741.00,0.0147
1740.00,0.0147
1739.00,0.0148
1738.00,0.0150
1737.00,0.0154
1736.00,0.0157
1735.00,0.0157
1734.00,0.0157
1733.00,0.0159
1732.00,0.0162
1731.00,0.0167
1730.00,0.0170
1729.00,0.0173
1728.00,0.0175
1727.00,0.0177
1726.00,0.0179
1725.00,0.0181
1724.00,0.0183
1723.00,0.0185
1722.00,0.0188
1721.00,0.0191
1720.00,0.0194
1719.00,0.0194
1718.00,0.0192
1717.00,0.0193
1716.00,0.0196
1715.00,0.0199
1714.00,0.0201
1713.00,0.0202
1712.00,0.0204
1711.00,0.0204
1710.00,0.0205
1709.00,0.0207
1708.00,0.0208
1707.00,0.0210
1706.00,0.0212
1705.00,0.0214
1704.00,0.0217
1703.00,0.0219
1702.00,0.0220
1701.00,0.0218
1700.00,0.0215
1699.00,0.0213
1698.00,0.0215
1697.00,0.0219
1696.00,0.0220
1695.00,0.0218
1694.00,0.0217
1693.00,0.0218
1692.00,0.0220
1691.00,0.0221
1690.00,0.0221
1689.00,0.0222
1688.00,0.0224
1687.00,0.0226
1686.00,0.0226
1685.00,0.0225
1684.00,0.0226
1683.00,0.0227
1682.00,0.0227
1681.00,0.0228
1680.00,0.0228
1679.00,0.0229
1678.00,0.0229
1677.00,0.0229
1676.00,0.0229
1675.00,0.0230
1674.00,0.0231
1673.00,0.0234
1672.00,0.0236
1671.00,0.0237
1670.00,0.0239
1669.00,0.0240
1668.00,0.0241
1667.00,0.0241
1666.00,0.0242
1665.00,0.0243
1664.00,0.0244
1663.00,0.0244
1662.00,0.0246
1661.00,0.0246
1660.00,0.0247
1659.00,0.0248
1658.00,0.0249
1657.00,0.0251
1656.00,0.0255
1655.00,0.0257
1654.00,0.0259
1653.00,0.0263
1652.00,0.0262
1651.00,0.0260
1650.00,0.0262
1649.00,0.0265
1648.00,0.0266
1647.00,0.0269
1646.00,0.0271
1645.00,0.0272
1644.00,0.0272
1643.00,0.0273
1642.00,0.0274
1641.00,0.0276
1640.00,0.0277
1639.00,0.0279
1638.00,0.0281
1637.00,0.0283
1636.00,0.0288
1635.00,0.0291
1634.00,0.0292
1633.00,0.0293
1632.00,0.0294
1631.00,0.0295
1630.00,0.0297
1629.00,0.0299
1628.00,0.0302
1627.00,0.0304
1626.00,0.0305
1625.00,0.0306
1624.00,0.0308
1623.00,0.0310
1622.00,0.0313
1621.00,0.0314
1620.00,0.0315
1619.00,0.0315
1618.00,0.0316
1617.00,0.0319
1616.00,0.0321
1615.00,0.0323
1614.00,0.0325
1613.00,0.0325
1612.00,0.0326
1611.00,0.0327
1610.00,0.0329
1609.00,0.0331
1608.00,0.0334
1607.00,0.0335
1606.00,0.0337
1605.00,0.0337
1604.00,0.0338
1603.00,0.0340
1602.00,0.0341
1601.00,0.0342
1600.00,0.0343
1599.00,0.0344
1598.00,0.0345
1597.00,0.0346
1596.00,0.0347
1595.00,0.0348
1594.00,0.0350
1593.00,0.0351
1592.00,0.0351
1591.00,0.0352
1590.00,0.0353
1589.00,0.0354
1588.00,0.0354
1587.00,0.0355
1586.00,0.0355
1585.00,0.0355
1584.00,0.0355
1583.00,0.0356
1582.00,0.0356
1581.00,0.0357
1580.00,0.0357
1579.00,0.0357
1578.00,0.0357
1577.00,0.0357
1576.00,0.0359
1575.00,0.0360
1574.00,0.0360
1573.00,0.0359
1572.00,0.0358
1571.00,0.0357
1570.00,0.0358
1569.00,0.0360
1568.00,0.0360
1567.00,0.0359
1566.00,0.0358
1565.00,0.0357
1564.00,0.0357
1563.00,0.0356
1562.00,0.0357
1561.00,0.0356
1560.00,0.0354
1559.00,0.0360
1558.00,0.0363
1557.00,0.0357
1556.00,0.0351
1555.00,0.0348
1554.00,0.0345
1553.00,0.0343
1552.00,0.0342
1551.00,0.0341
1550.00,0.0340
1549.00,0.0339
1548.00,0.0336
1547.00,0.0333
1546.00,0.0330
1545.00,0.0328
1544.00,0.0328
1543.00,0.0326
1542.00,0.0322
1541.00,0.0319
1540.00,0.0322
1539.00,0.0323
1538.00,0.0320
1537.00,0.0317
1536.00,0.0315
1535.00,0.0314
1534.00,0.0314
1533.00,0.0315
1532.00,0.0314
1531.00,0.0311
1530.00,0.0309
1529.00,0.0307
1528.00,0.0305
1527.00,0.0304
1526.00,0.0302
1525.00,0.0300
1524.00,0.0299
1523.00,0.0296
1522.00,0.0294
1521.00,0.0294
1520.00,0.0295
1519.00,0.0295
1518.00,0.0294
1517.00,0.0294
1516.00,0.0293
1515.00,0.0290
1514.00,0.0287
1513.00,0.0284
1512.00,0.0283
1511.00,0.0283
1510.00,0.0283
1509.00,0.0284
1508.00,0.0285
1507.00,0.0287
1506.00,0.0284
1505.00,0.0278
1504.00,0.0274
1503.00,0.0272
1502.00,0.0271
1501.00,0.0270
1500.00,0.0268
1499.00,0.0267
1498.00,0.0264
1497.00,0.0263
1496.00,0.0265
1495.00,0.0266
1494.00,0.0267
1493.00,0.0268
1492.00,0.0268
1491.00,0.0268
1490.00,0.0270
1489.00,0.0272
1488.00,0.0273
1487.00,0.0272
1486.00,0.0270
1485.00,0.0268
1484.00,0.0266
1483.00,0.0266
1482.00,0.0265
1481.00,0.0266
1480.00,0.0266
1479.00,0.0266
1478.00,0.0266
1477.00,0.0266
1476.00,0.0266
1475.00,0.0266
1474.00,0.0264
1473.00,0.0264
1472.00,0.0266
1471.00,0.0267
1470.00,0.0266
1469.00,0.0266
1468.00,0.0267
1467.00,0.0268
1466.00,0.0268
1465.00,0.0269
1464.00,0.0270
1463.00,0.0270
1462.00,0.0270
1461.00,0.0271
1460.00,0.0272
1459.00,0.0272
1458.00,0.0271
1457.00,0.0272
1456.00,0.0275
1455.00,0.0276
1454.00,0.0277
1453.00,0.0279
1452.00,0.0280
1451.00,0.0281
1450.00,0.0283
1449.00,0.0285
1448.00,0.0287
1447.00,0.0289
1446.00,0.0289
1445.00,0.0289
1444.00,0.0289
1443.00,0.0290
1442.00,0.0290
1441.00,0.0291
1440.00,0.0291
1439.00,0.0292
1438.00,0.0292
1437.00,0.0293
1436.00,0.0295
1435.00,0.0297
1434.00,0.0298
1433.00,0.0298
1432.00,0.0299
1431.00,0.0300
1430.00,0.0301
1429.00,0.0301
1428.00,0.0301
1427.00,0.0301
1426.00,0.0302
1425.00,0.0302
1424.00,0.0303
1423.00,0.0305
1422.00,0.0305
1421.00,0.0304
1420.00,0.0304
1419.00,0.0306
1418.00,0.0309
1417.00,0.0309
1416.00,0.0310
1415.00,0.0310
1414.00,0.0309
1413.00,0.0309
1412.00,0.0309
1411.00,0.0310
1410.00,0.0311
1409.00,0.0311
1408.00,0.0311
1407.00,0.0311
1406.00,0.0311
1405.00,0.0312
1404.00,0.0313
1403.00,0.0314
1402.00,0.0314
1401.00,0.0314
1400.00,0.0315
1399.00,0.0317
1398.00,0.0318
1397.00,0.0319
1396.00,0.0320
1395.00,0.0321
1394.00,0.0322
1393.00,0.0321
1392.00,0.0321
1391.00,0.0321
1390.00,0.0321
1389.00,0.0322
1388.00,0.0323
1387.00,0.0325
1386.00,0.0326
1385.00,0.0327
1384.00,0.0327
1383.00,0.0327
1382.00,0.0327
1381.00,0.0328
1380.00,0.0328
1379.00,0.0329
1378.00,0.0330
1377.00,0.0331
1376.00,0.0332
1375.00,0.0333
1374.00,0.0334
1373.00,0.0335
1372.00,0.0334
1371.00,0.0334
1370.00,0.0334
1369.00,0.0334
1368.00,0.0334
1367.00,0.0334
1366.00,0.0334
1365.00,0.0334
1364.00,0.0335
1363.00,0.0336
1362.00,0.0338
1361.00,0.0338
1360.00,0.0337
1359.00,0.0336
1358.00,0.0336
1357.00,0.0335
1356.00,0.0335
1355.00,0.0334
1354.00,0.0334
1353.00,0.0334
1352.00,0.0333
1351.00,0.0333
1350.00,0.0332
1349.00,0.0332
1348.00,0.0332
1347.00,0.0332
1346.00,0.0332
1345.00,0.0332
1344.00,0.0331
1343.00,0.0331
1342.00,0.0331
1341.00,0.0331
1340.00,0.0332
1339.00,0.0333
1338.00,0.0333
1337.00,0.0333
1336.00,0.0332
1335.00,0.0331
1334.00,0.0330
1333.00,0.0330
1332.00,0.0330
1331.00,0.0330
1330.00,0.0329
1329.00,0.0329
1328.00,0.0329
1327.00,0.0328
1326.00,0.0328
1325.00,0.0328
1324.00,0.0328
1323.00,0.0327
1322.00,0.0327
1321.00,0.0326
1320.00,0.0326
1319.00,0.0327
1318.00,0.0327
1317.00,0.0328
1316.00,0.0329
1315.00,0.0329
1314.00,0.0330
1313.00,0.0330
1312.00,0.0330
1311.00,0.0330
1310.00,0.0329
1309.00,0.0329
1308.00,0.0329
1307.00,0.0329
1306.00,0.0329
1305.00,0.0329
1304.00,0.0329
1303.00,0.0330
1302.00,0.0330
1301.00,0.0330
1300.00,0.0331
1299.00,0.0331
1298.00,0.0331
1297.00,0.0331
1296.00,0.0331
1295.00,0.0331
1294.00,0.0332
1293.00,0.0333
1292.00,0.0333
1291.00,0.0334
1290.00,0.0334
1289.00,0.0335
1288.00,0.0336
1287.00,0.0336
1286.00,0.0337
1285.00,0.0337
1284.00,0.0337
1283.00,0.0337
1282.00,0.0337
1281.00,0.0337
1280.00,0.0338
1279.00,0.0339
1278.00,0.0340
1277.00,0.0340
1276.00,0.0341
1275.00,0.0341
1274.00,0.0342
1273.00,0.0342
1272.00,0.0342
1271.00,0.0342
1270.00,0.0341
1269.00,0.0341
1268.00,0.0341
1267.00,0.0342
1266.00,0.0342
1265.00,0.0341
1264.00,0.0340
1263.00,0.0340
1262.00,0.0340
1261.00,0.0341
1260.00,0.0342
1259.00,0.0344
1258.00,0.0344
1257.00,0.0345
1256.00,0.0346
1255.00,0.0347
1254.00,0.0347
1253.00,0.0349
1252.00,0.0350
1251.00,0.0351
1250.00,0.0352
1249.00,0.0353
1248.00,0.0353
1247.00,0.0354
1246.00,0.0354
1245.00,0.0355
1244.00,0.0355
1243.00,0.0355
1242.00,0.0355
1241.00,0.0356
1240.00,0.0356
1239.00,0.0356
1238.00,0.0356
1237.00,0.0357
1236.00,0.0357
1235.00,0.0358
1234.00,0.0358
1233.00,0.0358
1232.00,0.0358
1231.00,0.0358
1230.00,0.0358
1229.00,0.0359
1228.00,0.0359
1227.00,0.0360
1226.00,0.0360
1225.00,0.0361
1224.00,0.0361
1223.00,0.0360
1222.00,0.0360
1221.00,0.0360
1220.00,0.0360
1219.00,0.0360
1218.00,0.0360
1217.00,0.0360
1216.00,0.0360
1215.00,0.0359
1214.00,0.0359
1213.00,0.0359
1212.00,0.0359
1211.00,0.0359
1210.00,0.0359
1209.00,0.0359
1208.00,0.0359
1207.00,0.0360
1206.00,0.0360
1205.00,0.0360
1204.00,0.0360
1203.00,0.0360
1202.00,0.0359
1201.00,0.0359
1200.00,0.0360
1199.00,0.0360
1198.00,0.0360
1197.00,0.0360
1196.00,0.0360
1195.00,0.0361
1194.00,0.0361
1193.00,0.0361
1192.00,0.0360
1191.00,0.0361
1190.00,0.0361
1189.00,0.0361
1188.00,0.0362
1187.00,0.0362
1186.00,0.0361
1185.00,0.0361
1184.00,0.0360
1183.00,0.0360
1182.00,0.0359
1181.00,0.0359
1180.00,0.0359
1179.00,0.0360
1178.00,0.0360
1177.00,0.0361
1176.00,0.0361
1175.00,0.0361
1174.00,0.0360
1173.00,0.0360
1172.00,0.0359
1171.00,0.0359
1170.00,0.0359
1169.00,0.0359
1168.00,0.0360
1167.00,0.0360
1166.00,0.0360
1165.00,0.0360
1164.00,0.0360
1163.00,0.0360
1162.00,0.0359
1161.00,0.0359
1160.00,0.0359
1159.00,0.0359
1158.00,0.0358
1157.00,0.0357
1156.00,0.0356
1155.00,0.0356
1154.00,0.0356
1153.00,0.0356
1152.00,0.0357
1151.00,0.0357
1150.00,0.0357
1149.00,0.0358
1148.00,0.0359
1147.00,0.0360
1146.00,0.0361
1145.00,0.0362
1144.00,0.0362
1143.00,0.0362
1142.00,0.0362
1141.00,0.0361
1140.00,0.0361
1139.00,0.0361
1138.00,0.0362
1137.00,0.0363
1136.00,0.0363
1135.00,0.0363
1134.00,0.0364
1133.00,0.0365
1132.00,0.0367
1131.00,0.0368
1130.00,0.0369
1129.00,0.0370
1128.00,0.0371
1127.00,0.0372
1126.00,0.0373
1125.00,0.0375
1124.00,0.0376
1123.00,0.0376
1122.00,0.0377
1121.00,0.0378
1120.00,0.0381
1119.00,0.0384
1118.00,0.0387
1117.00,0.0389
1116.00,0.0389
1115.00,0.0389
1114.00,0.0389
1113.00,0.0390
1112.00,0.0390
1111.00,0.0391
1110.00,0.0391
1109.00,0.0392
1108.00,0.0394
1107.00,0.0395
1106.00,0.0397
1105.00,0.0398
1104.00,0.0400
1103.00,0.0401
1102.00,0.0402
1101.00,0.0403
1100.00,0.0403
1099.00,0.0404
1098.00,0.0404
1097.00,0.0405
1096.00,0.0404
1095.00,0.0404
1094.00,0.0405
1093.00,0.0406
1092.00,0.0408
1091.00,0.0408
1090.00,0.0408
1089.00,0.0408
1088.00,0.0408
1087.00,0.0409
1086.00,0.0409
1085.00,0.0410
1084.00,0.0410
1083.00,0.0411
1082.00,0.0411
1081.00,0.0411
1080.00,0.0411
1079.00,0.0411
1078.00,0.0411
1077.00,0.0411
1076.00,0.0412
1075.00,0.0413
1074.00,0.0414
1073.00,0.0415
1072.00,0.0416
1071.00,0.0416
1070.00,0.0417
1069.00,0.0417
1068.00,0.0418
1067.00,0.0418
1066.00,0.0418
1065.00,0.0419
1064.00,0.0419
1063.00,0.0420
1062.00,0.0421
1061.00,0.0422
1060.00,0.0423
1059.00,0.0424
1058.00,0.0424
1057.00,0.0425
1056.00,0.0426
1055.00,0.0427
1054.00,0.0428
1053.00,0.0429
1052.00,0.0430
1051.00,0.0432
1050.00,0.0434
1049.00,0.0436
1048.00,0.0438
1047.00,0.0440
1046.00,0.0441
1045.00,0.0442
1044.00,0.0442
1043.00,0.0442
1042.00,0.0443
1041.00,0.0444
1040.00,0.0446
1039.00,0.0447
1038.00,0.0448
1037.00,0.0449
1036.00,0.0450
1035.00,0.0451
1034.00,0.0451
1033.00,0.0452
1032.00,0.0451
1031.00,0.0449
1030.00,0.0447
1029.00,0.0445
1028.00,0.0443
1027.00,0.0441
1026.00,0.0438
1025.00,0.0436
1024.00,0.0434
1023.00,0.0433
1022.00,0.0433
1021.00,0.0432
1020.00,0.0431
1019.00,0.0430
1018.00,0.0429
1017.00,0.0429
1016.00,0.0430
1015.00,0.0431
1014.00,0.0431
1013.00,0.0432
1012.00,0.0432
1011.00,0.0433
1010.00,0.0433
1009.00,0.0433
1008.00,0.0433
1007.00,0.0434
1006.00,0.0435
1005.00,0.0435
1004.00,0.0434
1003.00,0.0433
1002.00,0.0431
1001.00,0.0429
1000.00,0.0427
999.00,0.0425
998.00,0.0423
997.00,0.0421
996.00,0.0418
995.00,0.0415
994.00,0.0412
993.00,0.0410
992.00,0.0408
991.00,0.0406
990.00,0.0403
989.00,0.0401
988.00,0.0400
987.00,0.0399
986.00,0.0398
985.00,0.0397
984.00,0.0396
983.00,0.0395
982.00,0.0394
981.00,0.0392
980.00,0.0391
979.00,0.0388
978.00,0.0386
977.00,0.0384
976.00,0.0382
975.00,0.0381
974.00,0.0379
973.00,0.0378
972.00,0.0377
971.00,0.0376
970.00,0.0376
969.00,0.0376
968.00,0.0376
967.00,0.0375
966.00,0.0373
965.00,0.0372
964.00,0.0370
963.00,0.0369
962.00,0.0368
961.00,0.0367
960.00,0.0367
959.00,0.0367
958.00,0.0366
957.00,0.0365
956.00,0.0365
955.00,0.0364
954.00,0.0364
953.00,0.0364
952.00,0.0363
951.00,0.0362
950.00,0.0362
949.00,0.0362
948.00,0.0363
947.00,0.0364
946.00,0.0364
945.00,0.0365
944.00,0.0365
943.00,0.0365
942.00,0.0365
941.00,0.0366
940.00,0.0367
939.00,0.0367
938.00,0.0367
937.00,0.0367
936.00,0.0367
935.00,0.0367
934.00,0.0367
933.00,0.0366
932.00,0.0365
931.00,0.0365
930.00,0.0364
929.00,0.0364
928.00,0.0365
927.00,0.0365
926.00,0.0366
925.00,0.0367
924.00,0.0368
923.00,0.0368
922.00,0.0369
921.00,0.0370
920.00,0.0371
919.00,0.0372
918.00,0.0375
917.00,0.0377
916.00,0.0378
915.00,0.0377
914.00,0.0377
913.00,0.0377
912.00,0.0378
911.00,0.0378
910.00,0.0378
909.00,0.0377
908.00,0.0376
907.00,0.0374
906.00,0.0372
905.00,0.0371
904.00,0.0370
903.00,0.0369
902.00,0.0367
901.00,0.0366
900.00,0.0366
899.00,0.0366
898.00,0.0365
897.00,0.0364
896.00,0.0363
895.00,0.0361
894.00,0.0361
893.00,0.0361
892.00,0.0360
891.00,0.0360
890.00,0.0360
889.00,0.0360
888.00,0.0361
887.00,0.0362
886.00,0.0362
885.00,0.0361
884.00,0.0360
883.00,0.0360
882.00,0.0360
881.00,0.0360
880.00,0.0360
879.00,0.0359
878.00,0.0359
877.00,0.0358
876.00,0.0357
875.00,0.0357
874.00,0.0357
873.00,0.0356
872.00,0.0355
871.00,0.0353
870.00,0.0352
869.00,0.0351
868.00,0.0352
867.00,0.0353
866.00,0.0354
865.00,0.0355
864.00,0.0355
863.00,0.0355
862.00,0.0354
861.00,0.0353
860.00,0.0353
859.00,0.0354
858.00,0.0354
857.00,0.0354
856.00,0.0355
855.00,0.0355
854.00,0.0356
853.00,0.0355
852.00,0.0355
851.00,0.0355
850.00,0.0355
849.00,0.0355
848.00,0.0356
847.00,0.0357
846.00,0.0358
845.00,0.0359
844.00,0.0360
843.00,0.0360
842.00,0.0361
841.00,0.0362
840.00,0.0363
839.00,0.0365
838.00,0.0368
837.00,0.0370
836.00,0.0371
835.00,0.0371
834.00,0.0369
833.00,0.0369
832.00,0.0371
831.00,0.0373
830.00,0.0376
829.00,0.0378
828.00,0.0378
827.00,0.0376
826.00,0.0374
825.00,0.0374
824.00,0.0375
823.00,0.0376
822.00,0.0377
821.00,0.0379
820.00,0.0380
819.00,0.0382
818.00,0.0382
817.00,0.0382
816.00,0.0381
815.00,0.0380
814.00,0.0380
813.00,0.0379
812.00,0.0380
811.00,0.0381
810.00,0.0384
809.00,0.0387
808.00,0.0389
807.00,0.0391
806.00,0.0392
805.00,0.0393
804.00,0.0394
803.00,0.0394
802.00,0.0396
801.00,0.0399
800.00,0.0402
799.00,0.0403
798.00,0.0402
797.00,0.0402
796.00,0.0403
795.00,0.0405
794.00,0.0407
793.00,0.0409
792.00,0.0410
791.00,0.0410
790.00,0.0411
789.00,0.0412
788.00,0.0413
787.00,0.0414
786.00,0.0415
785.00,0.0416
784.00,0.0416
783.00,0.0416
782.00,0.0416
781.00,0.0416
780.00,0.0417
779.00,0.0419
778.00,0.0420
777.00,0.0421
776.00,0.0420
775.00,0.0420
774.00,0.0419
773.00,0.0420
772.00,0.0422
771.00,0.0424
770.00,0.0425
769.00,0.0425
768.00,0.0423
767.00,0.0421
766.00,0.0419
765.00,0.0419
764.00,0.0421
763.00,0.0423
762.00,0.0425
761.00,0.0427
760.00,0.0429
759.00,0.0432
758.00,0.0434
757.00,0.0435
756.00,0.0435
755.00,0.0435
754.00,0.0433
753.00,0.0433
752.00,0.0434
751.00,0.0435
750.00,0.0436
749.00,0.0435
748.00,0.0435
747.00,0.0435
746.00,0.0435
745.00,0.0435
744.00,0.0435
743.00,0.0434
742.00,0.0432
741.00,0.0431
740.00,0.0430
739.00,0.0430
738.00,0.0430
737.00,0.0431
736.00,0.0431
735.00,0.0432
734.00,0.0432
733.00,0.0431
732.00,0.0431
731.00,0.0431
730.00,0.0430
729.00,0.0431
728.00,0.0431
727.00,0.0433
726.00,0.0435
725.00,0.0436
724.00,0.0437
723.00,0.0438
722.00,0.0439
721.00,0.0439
720.00,0.0440
719.00,0.0440
718.00,0.0440
717.00,0.0439
716.00,0.0439
715.00,0.0440
714.00,0.0442
713.00,0.0445
712.00,0.0449
711.00,0.0451
710.00,0.0452
709.00,0.0450
708.00,0.0449
707.00,0.0451
706.00,0.0456
705.00,0.0461
704.00,0.0465
703.00,0.0465
702.00,0.0463
701.00,0.0462
700.00,0.0463
699.00,0.0466
698.00,0.0468
697.00,0.0469
696.00,0.0469
695.00,0.0468
694.00,0.0467
693.00,0.0466
692.00,0.0466
691.00,0.0469
690.00,0.0470
689.00,0.0470
688.00,0.0468
687.00,0.0467
686.00,0.0467
685.00,0.0466
684.00,0.0466
683.00,0.0466
682.00,0.0469
681.00,0.0473
680.00,0.0477
679.00,0.0479
678.00,0.0480
677.00,0.0480
676.00,0.0482
675.00,0.0484
674.00,0.0486
673.00,0.0484
672.00,0.0480
671.00,0.0475
670.00,0.0471
669.00,0.0475
668.00,0.0488
667.00,0.0501
666.00,0.0508
665.00,0.0504
664.00,0.0495
663.00,0.0488
662.00,0.0486
661.00,0.0488
660.00,0.0496
659.00,0.0505
658.00,0.0507
657.00,0.0504
656.00,0.0497
655.00,0.0494
654.00,0.0494
653.00,0.0495
652.00,0.0496
651.00,0.0496
650.00,0.0497
