Created as New Dataset,
cm-1,A
4000.00,0.0059
3999.00,0.0059
3998.00,0.0059
3997.00,0.0060
3996.00,0.0060
3995.00,0.0060
3994.00,0.0060
3993.00,0.0060
3992.00,0.0060
3991.00,0.0060
3990.00,0.0059
3989.00,0.0059
3988.00,0.0059
3987.00,0.0058
3986.00,0.0058
3985.00,0.0058
3984.00,0.0058
3983.00,0.0059
3982.00,0.0059
3981.00,0.0059
3980.00,0.0059
3979.00,0.0060
3978.00,0.0060
3977.00,0.0060
3976.00,0.0060
3975.00,0.0060
3974.00,0.0060
3973.00,0.0060
3972.00,0.0060
3971.00,0.0060
3970.00,0.0059
3969.00,0.0059
3968.00,0.0058
3967.00,0.0057
3966.00,0.0057
3965.00,0.0058
3964.00,0.0058
3963.00,0.0059
3962.00,0.0059
3961.00,0.0059
3960.00,0.0059
3959.00,0.0059
3958.00,0.0059
3957.00,0.0059
3956.00,0.0058
3955.00,0.0058
3954.00,0.0059
3953.00,0.0059
3952.00,0.0059
3951.00,0.0059
3950.00,0.0060
3949.00,0.0060
3948.00,0.0060
3947.00,0.0061
3946.00,0.0061
3945.00,0.0062
3944.00,0.0062
3943.00,0.0061
3942.00,0.0061
3941.00,0.0061
3940.00,0.0060
3939.00,0.0060
3938.00,0.0059
3937.00,0.0058
3936.00,0.0058
3935.00,0.0059
3934.00,0.0060
3933.00,0.0060
3932.00,0.0061
3931.00,0.0061
3930.00,0.0061
3929.00,0.0061
3928.00,0.0060
3927.00,0.0060
3926.00,0.0060
3925.00,0.0060
3924.00,0.0060
3923.00,0.0061
3922.00,0.0061
3921.00,0.0061
3920.00,0.0061
3919.00,0.0061
3918.00,0.0061
3917.00,0.0061
3916.00,0.0061
3915.00,0.0060
3914.00,0.0059
3913.00,0.0058
3912.00,0.0057
3911.00,0.0056
3910.00,0.0056
3909.00,0.0057
3908.00,0.0059
3907.00,0.0060
3906.00,0.0062
3905.00,0.0063
3904.00,0.0064
3903.00,0.0066
3902.00,0.0068
3901.00,0.0069
3900.00,0.0068
3899.00,0.0065
3898.00,0.0062
3897.00,0.0061
3896.00,0.0061
3895.00,0.0061
3894.00,0.0061
3893.00,0.0061
3892.00,0.0060
3891.00,0.0058
3890.00,0.0059
3889.00,0.0061
3888.00,0.0063
3887.00,0.0063
3886.00,0.0061
3885.00,0.0060
3884.00,0.0062
3883.00,0.0065
3882.00,0.0067
3881.00,0.0064
3880.00,0.0061
3879.00,0.0060
3878.00,0.0060
3877.00,0.0062
3876.00,0.0062
3875.00,0.0060
3874.00,0.0059
3873.00,0.0061
3872.00,0.0065
3871.00,0.0065
3870.00,0.0063
3869.00,0.0061
3868.00,0.0062
3867.00,0.0065
3866.00,0.0065
3865.00,0.0063
3864.00,0.0062
3863.00,0.0063
3862.00,0.0063
3861.00,0.0062
3860.00,0.0060
3859.00,0.0058
3858.00,0.0059
3857.00,0.0061
3856.00,0.0063
3855.00,0.0062
3854.00,0.0061
3853.00,0.0060
3852.00,0.0062
3851.00,0.0063
3850.00,0.0062
3849.00,0.0061
3848.00,0.0059
3847.00,0.0057
3846.00,0.0057
3845.00,0.0056
3844.00,0.0056
3843.00,0.0056
3842.00,0.0058
3841.00,0.0060
3840.00,0.0062
3839.00,0.0062
3838.00,0.0062
3837.00,0.0062
3836.00,0.0063
3835.00,0.0063
3834.00,0.0063
3833.00,0.0062
3832.00,0.0060
3831.00,0.0058
3830.00,0.0058
3829.00,0.0059
3828.00,0.0059
3827.00,0.0058
3826.00,0.0057
3825.00,0.0058
3824.00,0.0061
3823.00,0.0062
3822.00,0.0060
3821.00,0.0057
3820.00,0.0057
3819.00,0.0060
3818.00,0.0062
3817.00,0.0060
3816.00,0.0056
3815.00,0.0054
3814.00,0.0056
3813.00,0.0057
3812.00,0.0056
3811.00,0.0055
3810.00,0.0054
3809.00,0.0055
3808.00,0.0054
3807.00,0.0052
3806.00,0.0052
3805.00,0.0055
3804.00,0.0059
3803.00,0.0059
3802.00,0.0057
3801.00,0.0056
3800.00,0.0057
3799.00,0.0060
3798.00,0.0061
3797.00,0.0059
3796.00,0.0057
3795.00,0.0056
3794.00,0.0056
3793.00,0.0056
3792.00,0.0056
3791.00,0.0055
3790.00,0.0054
3789.00,0.0054
3788.00,0.0054
3787.00,0.0054
3786.00,0.0054
3785.00,0.0054
3784.00,0.0054
3783.00,0.0055
3782.00,0.0055
3781.00,0.0055
3780.00,0.0054
3779.00,0.0053
3778.00,0.0054
3777.00,0.0055
3776.00,0.0055
3775.00,0.0054
3774.00,0.0053
3773.00,0.0054
3772.00,0.0054
3771.00,0.0054
3770.00,0.0054
3769.00,0.0054
3768.00,0.0056
3767.00,0.0058
3766.00,0.0057
3765.00,0.0056
3764.00,0.0055
3763.00,0.0057
3762.00,0.0058
3761.00,0.0058
3760.00,0.0058
3759.00,0.0058
3758.00,0.0058
3757.00,0.0057
3756.00,0.0057
3755.00,0.0058
3754.00,0.0058
3753.00,0.0056
3752.00,0.0056
3751.00,0.0059
3750.00,0.0061
3749.00,0.0062
3748.00,0.0064
3747.00,0.0067
3746.00,0.0067
3745.00,0.0062
3744.00,0.0057
3743.00,0.0057
3742.00,0.0059
3741.00,0.0060
3740.00,0.0059
3739.00,0.0059
3738.00,0.0059
3737.00,0.0060
3736.00,0.0061
3735.00,0.0063
3734.00,0.0065
3733.00,0.0064
3732.00,0.0061
3731.00,0.0059
3730.00,0.0058
3729.00,0.0059
3728.00,0.0059
3727.00,0.0058
3726.00,0.0058
3725.00,0.0059
3724.00,0.0061
3723.00,0.0061
3722.00,0.0060
3721.00,0.0060
3720.00,0.0059
3719.00,0.0059
3718.00,0.0058
3717.00,0.0057
3716.00,0.0057
3715.00,0.0058
3714.00,0.0058
3713.00,0.0058
3712.00,0.0059
3711.00,0.0062
3710.00,0.0064
3709.00,0.0065
3708.00,0.0064
3707.00,0.0063
3706.00,0.0062
3705.00,0.0062
3704.00,0.0063
3703.00,0.0064
3702.00,0.0065
3701.00,0.0065
3700.00,0.0066
3699.00,0.0067
3698.00,0.0067
3697.00,0.0066
3696.00,0.0065
3695.00,0.0065
3694.00,0.0066
3693.00,0.0067
3692.00,0.0068
3691.00,0.0069
3690.00,0.0071
3689.00,0.0071
3688.00,0.0070
3687.00,0.0070
3686.00,0.0070
3685.00,0.0069
3684.00,0.0068
3683.00,0.0067
3682.00,0.0066
3681.00,0.0065
3680.00,0.0064
3679.00,0.0065
3678.00,0.0068
3677.00,0.0071
3676.00,0.0073
3675.00,0.0073
3674.00,0.0074
3673.00,0.0076
3672.00,0.0077
3671.00,0.0075
3670.00,0.0073
3669.00,0.0074
3668.00,0.0075
3667.00,0.0074
3666.00,0.0073
3665.00,0.0071
3664.00,0.0070
3663.00,0.0069
3662.00,0.0069
3661.00,0.0069
3660.00,0.0070
3659.00,0.0072
3658.00,0.0073
3657.00,0.0074
3656.00,0.0075
3655.00,0.0077
3654.00,0.0079
3653.00,0.0082
3652.00,0.0082
3651.00,0.0081
3650.00,0.0083
3649.00,0.0089
3648.00,0.0093
3647.00,0.0093
3646.00,0.0091
3645.00,0.0088
3644.00,0.0086
3643.00,0.0084
3642.00,0.0082
3641.00,0.0081
3640.00,0.0081
3639.00,0.0081
3638.00,0.0082
3637.00,0.0083
3636.00,0.0084
3635.00,0.0084
3634.00,0.0084
3633.00,0.0084
3632.00,0.0087
3631.00,0.0090
3630.00,0.0092
3629.00,0.0094
3628.00,0.0095
3627.00,0.0096
3626.00,0.0096
3625.00,0.0094
3624.00,0.0092
3623.00,0.0092
3622.00,0.0093
3621.00,0.0096
3620.00,0.0099
3619.00,0.0102
3618.00,0.0104
3617.00,0.0105
3616.00,0.0105
3615.00,0.0104
3614.00,0.0102
3613.00,0.0101
3612.00,0.0102
3611.00,0.0102
3610.00,0.0103
3609.00,0.0102
3608.00,0.0102
3607.00,0.0102
3606.00,0.0101
3605.00,0.0100
3604.00,0.0099
3603.00,0.0099
3602.00,0.0099
3601.00,0.0100
3600.00,0.0101
3599.00,0.0102
3598.00,0.0103
3597.00,0.0104
3596.00,0.0105
3595.00,0.0105
3594.00,0.0106
3593.00,0.0106
3592.00,0.0106
3591.00,0.0106
3590.00,0.0107
3589.00,0.0109
3588.00,0.0111
3587.00,0.0113
3586.00,0.0114
3585.00,0.0114
3584.00,0.0112
3583.00,0.0111
3582.00,0.0109
3581.00,0.0109
3580.00,0.0109
3579.00,0.0110
3578.00,0.0110
3577.00,0.0110
3576.00,0.0110
3575.00,0.0109
3574.00,0.0109
3573.00,0.0109
3572.00,0.0109
3571.00,0.0110
3570.00,0.0112
3569.00,0.0115
3568.00,0.0118
3567.00,0.0122
3566.00,0.0125
3565.00,0.0125
3564.00,0.0123
3563.00,0.0121
3562.00,0.0119
3561.00,0.0118
3560.00,0.0117
3559.00,0.0116
3558.00,0.0115
3557.00,0.0115
3556.00,0.0114
3555.00,0.0115
3554.00,0.0116
3553.00,0.0117
3552.00,0.0118
3551.00,0.0119
3550.00,0.0120
3549.00,0.0120
3548.00,0.0121
3547.00,0.0122
3546.00,0.0124
3545.00,0.0125
3544.00,0.0124
3543.00,0.0123
3542.00,0.0122
3541.00,0.0121
3540.00,0.0120
3539.00,0.0120
3538.00,0.0121
3537.00,0.0122
3536.00,0.0123
3535.00,0.0123
3534.00,0.0123
3533.00,0.0123
3532.00,0.0122
3531.00,0.0122
3530.00,0.0123
3529.00,0.0124
3528.00,0.0126
3527.00,0.0127
3526.00,0.0128
3525.00,0.0129
3524.00,0.0129
3523.00,0.0129
3522.00,0.0129
3521.00,0.0128
3520.00,0.0128
3519.00,0.0128
3518.00,0.0128
3517.00,0.0128
3516.00,0.0128
3515.00,0.0128
3514.00,0.0128
3513.00,0.0128
3512.00,0.0129
3511.00,0.0130
3510.00,0.0131
3509.00,0.0132
3508.00,0.0132
3507.00,0.0132
3506.00,0.0132
3505.00,0.0132
3504.00,0.0133
3503.00,0.0134
3502.00,0.0135
3501.00,0.0136
3500.00,0.0136
3499.00,0.0135
3498.00,0.0134
3497.00,0.0134
3496.00,0.0134
3495.00,0.0134
3494.00,0.0134
3493.00,0.0134
3492.00,0.0134
3491.00,0.0133
3490.00,0.0133
3489.00,0.0133
3488.00,0.0134
3487.00,0.0135
3486.00,0.0136
3485.00,0.0137
3484.00,0.0138
3483.00,0.0138
3482.00,0.0138
3481.00,0.0139
3480.00,0.0139
3479.00,0.0139
3478.00,0.0139
3477.00,0.0139
3476.00,0.0139
3475.00,0.0139
3474.00,0.0140
3473.00,0.0140
3472.00,0.0140
3471.00,0.0140
3470.00,0.0140
3469.00,0.0141
3468.00,0.0141
3467.00,0.0141
3466.00,0.0141
3465.00,0.0142
3464.00,0.0142
3463.00,0.0142
3462.00,0.0143
3461.00,0.0142
3460.00,0.0142
3459.00,0.0142
3458.00,0.0142
3457.00,0.0142
3456.00,0.0143
3455.00,0.0143
3454.00,0.0144
3453.00,0.0145
3452.00,0.0145
3451.00,0.0145
3450.00,0.0145
3449.00,0.0144
3448.00,0.0145
3447.00,0.0145
3446.00,0.0145
3445.00,0.0146
3444.00,0.0145
3443.00,0.0145
3442.00,0.0145
3441.00,0.0145
3440.00,0.0146
3439.00,0.0146
3438.00,0.0146
3437.00,0.0146
3436.00,0.0146
3435.00,0.0146
3434.00,0.0146
3433.00,0.0147
3432.00,0.0147
3431.00,0.0148
3430.00,0.0148
3429.00,0.0147
3428.00,0.0147
3427.00,0.0147
3426.00,0.0147
3425.00,0.0148
3424.00,0.0149
3423.00,0.0149
3422.00,0.0149
3421.00,0.0150
3420.00,0.0150
3419.00,0.0150
3418.00,0.0150
3417.00,0.0150
3416.00,0.0149
3415.00,0.0149
3414.00,0.0149
3413.00,0.0149
3412.00,0.0150
3411.00,0.0150
3410.00,0.0151
3409.00,0.0151
3408.00,0.0151
3407.00,0.0151
3406.00,0.0152
3405.00,0.0152
3404.00,0.0153
3403.00,0.0153
3402.00,0.0154
3401.00,0.0154
3400.00,0.0153
3399.00,0.0153
3398.00,0.0152
3397.00,0.0152
3396.00,0.0152
3395.00,0.0153
3394.00,0.0153
3393.00,0.0154
3392.00,0.0154
3391.00,0.0154
3390.00,0.0154
3389.00,0.0154
3388.00,0.0153
3387.00,0.0153
3386.00,0.0154
3385.00,0.0154
3384.00,0.0155
3383.00,0.0154
3382.00,0.0154
3381.00,0.0153
3380.00,0.0153
3379.00,0.0154
3378.00,0.0154
3377.00,0.0154
3376.00,0.0154
3375.00,0.0155
3374.00,0.0155
3373.00,0.0155
3372.00,0.0155
3371.00,0.0155
3370.00,0.0155
3369.00,0.0155
3368.00,0.0155
3367.00,0.0156
3366.00,0.0157
3365.00,0.0157
3364.00,0.0157
3363.00,0.0157
3362.00,0.0157
3361.00,0.0157
3360.00,0.0157
3359.00,0.0157
3358.00,0.0157
3357.00,0.0157
3356.00,0.0157
3355.00,0.0157
3354.00,0.0157
3353.00,0.0156
3352.00,0.0156
3351.00,0.0156
3350.00,0.0157
3349.00,0.0157
3348.00,0.0156
3347.00,0.0156
3346.00,0.0156
3345.00,0.0156
3344.00,0.0157
3343.00,0.0157
3342.00,0.0157
3341.00,0.0157
3340.00,0.0157
3339.00,0.0157
3338.00,0.0157
3337.00,0.0158
3336.00,0.0158
3335.00,0.0158
3334.00,0.0159
3333.00,0.0159
3332.00,0.0159
3331.00,0.0158
3330.00,0.0158
3329.00,0.0158
3328.00,0.0158
3327.00,0.0158
3326.00,0.0158
3325.00,0.0159
3324.00,0.0159
3323.00,0.0159
3322.00,0.0159
3321.00,0.0159
3320.00,0.0158
3319.00,0.0158
3318.00,0.0158
3317.00,0.0158
3316.00,0.0158
3315.00,0.0158
3314.00,0.0158
3313.00,0.0158
3312.00,0.0158
3311.00,0.0158
3310.00,0.0159
3309.00,0.0159
3308.00,0.0159
3307.00,0.0159
3306.00,0.0160
3305.00,0.0160
3304.00,0.0160
3303.00,0.0160
3302.00,0.0160
3301.00,0.0160
3300.00,0.0159
3299.00,0.0159
3298.00,0.0159
3297.00,0.0160
3296.00,0.0160
3295.00,0.0159
3294.00,0.0159
3293.00,0.0159
3292.00,0.0159
3291.00,0.0159
3290.00,0.0159
3289.00,0.0160
3288.00,0.0159
3287.00,0.0159
3286.00,0.0159
3285.00,0.0159
3284.00,0.0159
3283.00,0.0159
3282.00,0.0159
3281.00,0.0159
3280.00,0.0159
3279.00,0.0159
3278.00,0.0159
3277.00,0.0159
3276.00,0.0159
3275.00,0.0159
3274.00,0.0160
3273.00,0.0160
3272.00,0.0160
3271.00,0.0160
3270.00,0.0160
3269.00,0.0160
3268.00,0.0159
3267.00,0.0159
3266.00,0.0160
3265.00,0.0160
3264.00,0.0160
3263.00,0.0160
3262.00,0.0160
3261.00,0.0159
3260.00,0.0159
3259.00,0.0159
3258.00,0.0159
3257.00,0.0159
3256.00,0.0159
3255.00,0.0159
3254.00,0.0159
3253.00,0.0158
3252.00,0.0158
3251.00,0.0158
3250.00,0.0158
3249.00,0.0158
3248.00,0.0159
3247.00,0.0160
3246.00,0.0160
3245.00,0.0161
3244.00,0.0160
3243.00,0.0160
3242.00,0.0159
3241.00,0.0159
3240.00,0.0158
3239.00,0.0159
3238.00,0.0159
3237.00,0.0159
3236.00,0.0160
3235.00,0.0160
3234.00,0.0161
3233.00,0.0161
3232.00,0.0161
3231.00,0.0162
3230.00,0.0161
3229.00,0.0161
3228.00,0.0160
3227.00,0.0160
3226.00,0.0160
3225.00,0.0160
3224.00,0.0160
3223.00,0.0160
3222.00,0.0161
3221.00,0.0161
3220.00,0.0161
3219.00,0.0160
3218.00,0.0160
3217.00,0.0160
3216.00,0.0159
3215.00,0.0159
3214.00,0.0160
3213.00,0.0160
3212.00,0.0161
3211.00,0.0161
3210.00,0.0161
3209.00,0.0161
3208.00,0.0161
3207.00,0.0160
3206.00,0.0160
3205.00,0.0160
3204.00,0.0160
3203.00,0.0160
3202.00,0.0160
3201.00,0.0160
3200.00,0.0161
3199.00,0.0161
3198.00,0.0161
3197.00,0.0161
3196.00,0.0161
3195.00,0.0161
3194.00,0.0161
3193.00,0.0160
3192.00,0.0160
3191.00,0.0160
3190.00,0.0160
3189.00,0.0160
3188.00,0.0160
3187.00,0.0160
3186.00,0.0161
3185.00,0.0161
3184.00,0.0161
3183.00,0.0161
3182.00,0.0161
3181.00,0.0161
3180.00,0.0161
3179.00,0.0161
3178.00,0.0161
3177.00,0.0160
3176.00,0.0160
3175.00,0.0160
3174.00,0.0160
3173.00,0.0160
3172.00,0.0160
3171.00,0.0160
3170.00,0.0160
3169.00,0.0160
3168.00,0.0159
3167.00,0.0159
3166.00,0.0159
3165.00,0.0159
3164.00,0.0159
3163.00,0.0159
3162.00,0.0159
3161.00,0.0159
3160.00,0.0159
3159.00,0.0159
3158.00,0.0160
3157.00,0.0159
3156.00,0.0159
3155.00,0.0158
3154.00,0.0158
3153.00,0.0158
3152.00,0.0157
3151.00,0.0157
3150.00,0.0157
3149.00,0.0157
3148.00,0.0157
3147.00,0.0158
3146.00,0.0158
3145.00,0.0158
3144.00,0.0158
3143.00,0.0158
3142.00,0.0158
3141.00,0.0158
3140.00,0.0158
3139.00,0.0158
3138.00,0.0158
3137.00,0.0158
3136.00,0.0158
3135.00,0.0158
3134.00,0.0158
3133.00,0.0157
3132.00,0.0157
3131.00,0.0157
3130.00,0.0157
3129.00,0.0158
3128.00,0.0158
3127.00,0.0158
3126.00,0.0158
3125.00,0.0158
3124.00,0.0158
3123.00,0.0158
3122.00,0.0157
3121.00,0.0157
3120.00,0.0157
3119.00,0.0157
3118.00,0.0157
3117.00,0.0157
3116.00,0.0158
3115.00,0.0158
3114.00,0.0158
3113.00,0.0158
3112.00,0.0158
3111.00,0.0157
3110.00,0.0157
3109.00,0.0157
3108.00,0.0156
3107.00,0.0157
3106.00,0.0157
3105.00,0.0157
3104.00,0.0157
3103.00,0.0157
3102.00,0.0157
3101.00,0.0157
3100.00,0.0156
3099.00,0.0156
3098.00,0.0156
3097.00,0.0156
3096.00,0.0157
3095.00,0.0157
3094.00,0.0157
3093.00,0.0156
3092.00,0.0156
3091.00,0.0156
3090.00,0.0156
3089.00,0.0156
3088.00,0.0156
3087.00,0.0156
3086.00,0.0157
3085.00,0.0156
3084.00,0.0156
3083.00,0.0156
3082.00,0.0157
3081.00,0.0157
3080.00,0.0157
3079.00,0.0156
3078.00,0.0156
3077.00,0.0156
3076.00,0.0156
3075.00,0.0156
3074.00,0.0156
3073.00,0.0156
3072.00,0.0156
3071.00,0.0156
3070.00,0.0155
3069.00,0.0155
3068.00,0.0155
3067.00,0.0155
3066.00,0.0155
3065.00,0.0156
3064.00,0.0156
3063.00,0.0156
3062.00,0.0155
3061.00,0.0155
3060.00,0.0154
3059.00,0.0154
3058.00,0.0154
3057.00,0.0155
3056.00,0.0155
3055.00,0.0156
3054.00,0.0156
3053.00,0.0156
3052.00,0.0155
3051.00,0.0154
3050.00,0.0154
3049.00,0.0153
3048.00,0.0153
3047.00,0.0153
3046.00,0.0153
3045.00,0.0153
3044.00,0.0154
3043.00,0.0154
3042.00,0.0153
3041.00,0.0153
3040.00,0.0153
3039.00,0.0153
3038.00,0.0153
3037.00,0.0153
3036.00,0.0153
3035.00,0.0153
3034.00,0.0153
3033.00,0.0153
3032.00,0.0153
3031.00,0.0153
3030.00,0.0152
3029.00,0.0152
3028.00,0.0152
3027.00,0.0151
3026.00,0.0151
3025.00,0.0151
3024.00,0.0151
3023.00,0.0151
3022.00,0.0151
3021.00,0.0151
3020.00,0.0151
3019.00,0.0151
3018.00,0.0151
3017.00,0.0151
3016.00,0.0151
3015.00,0.0152
3014.00,0.0152
3013.00,0.0153
3012.00,0.0153
3011.00,0.0153
3010.00,0.0153
3009.00,0.0153
3008.00,0.0152
3007.00,0.0152
3006.00,0.0153
3005.00,0.0153
3004.00,0.0153
3003.00,0.0154
3002.00,0.0154
3001.00,0.0154
3000.00,0.0154
2999.00,0.0154
2998.00,0.0154
2997.00,0.0154
2996.00,0.0154
2995.00,0.0154
2994.00,0.0154
2993.00,0.0154
2992.00,0.0154
2991.00,0.0154
2990.00,0.0153
2989.00,0.0153
2988.00,0.0153
2987.00,0.0154
2986.00,0.0155
2985.00,0.0156
2984.00,0.0156
2983.00,0.0157
2982.00,0.0157
2981.00,0.0156
2980.00,0.0156
2979.00,0.0156
2978.00,0.0156
2977.00,0.0155
2976.00,0.0155
2975.00,0.0155
2974.00,0.0155
2973.00,0.0155
2972.00,0.0155
2971.00,0.0154
2970.00,0.0153
2969.00,0.0152
2968.00,0.0152
2967.00,0.0151
2966.00,0.0151
2965.00,0.0151
2964.00,0.0150
2963.00,0.0150
2962.00,0.0149
2961.00,0.0149
2960.00,0.0149
2959.00,0.0150
2958.00,0.0150
2957.00,0.0149
2956.00,0.0148
2955.00,0.0148
2954.00,0.0148
2953.00,0.0148
2952.00,0.0148
2951.00,0.0148
2950.00,0.0148
2949.00,0.0148
2948.00,0.0148
2947.00,0.0148
2946.00,0.0148
2945.00,0.0148
2944.00,0.0148
2943.00,0.0147
2942.00,0.0147
2941.00,0.0147
2940.00,0.0147
2939.00,0.0147
2938.00,0.0147
2937.00,0.0146
2936.00,0.0146
2935.00,0.0146
2934.00,0.0146
2933.00,0.0146
2932.00,0.0146
2931.00,0.0146
2930.00,0.0145
2929.00,0.0145
2928.00,0.0144
2927.00,0.0143
2926.00,0.0143
2925.00,0.0143
2924.00,0.0143
2923.00,0.0143
2922.00,0.0144
2921.00,0.0144
2920.00,0.0144
2919.00,0.0144
2918.00,0.0143
2917.00,0.0142
2916.00,0.0142
2915.00,0.0142
2914.00,0.0143
2913.00,0.0143
2912.00,0.0143
2911.00,0.0143
2910.00,0.0143
2909.00,0.0143
2908.00,0.0143
2907.00,0.0144
2906.00,0.0144
2905.00,0.0144
2904.00,0.0143
2903.00,0.0143
2902.00,0.0143
2901.00,0.0143
2900.00,0.0143
2899.00,0.0143
2898.00,0.0143
2897.00,0.0143
2896.00,0.0142
2895.00,0.0142
2894.00,0.0142
2893.00,0.0143
2892.00,0.0143
2891.00,0.0143
2890.00,0.0143
2889.00,0.0142
2888.00,0.0142
2887.00,0.0143
2886.00,0.0143
2885.00,0.0143
2884.00,0.0143
2883.00,0.0143
2882.00,0.0143
2881.00,0.0142
2880.00,0.0142
2879.00,0.0141
2878.00,0.0141
2877.00,0.0140
2876.00,0.0140
2875.00,0.0139
2874.00,0.0139
2873.00,0.0138
2872.00,0.0138
2871.00,0.0137
2870.00,0.0137
2869.00,0.0137
2868.00,0.0137
2867.00,0.0137
2866.00,0.0136
2865.00,0.0136
2864.00,0.0136
2863.00,0.0136
2862.00,0.0136
2861.00,0.0136
2860.00,0.0136
2859.00,0.0136
2858.00,0.0136
2857.00,0.0136
2856.00,0.0136
2855.00,0.0136
2854.00,0.0135
2853.00,0.0135
2852.00,0.0135
2851.00,0.0135
2850.00,0.0134
2849.00,0.0134
2848.00,0.0134
2847.00,0.0133
2846.00,0.0133
2845.00,0.0133
2844.00,0.0133
2843.00,0.0133
2842.00,0.0133
2841.00,0.0133
2840.00,0.0134
2839.00,0.0134
2838.00,0.0134
2837.00,0.0133
2836.00,0.0133
2835.00,0.0132
2834.00,0.0132
2833.00,0.0132
2832.00,0.0132
2831.00,0.0132
2830.00,0.0132
2829.00,0.0132
2828.00,0.0132
2827.00,0.0132
2826.00,0.0132
2825.00,0.0132
2824.00,0.0131
2823.00,0.0131
2822.00,0.0131
2821.00,0.0131
2820.00,0.0131
2819.00,0.0131
2818.00,0.0130
2817.00,0.0130
2816.00,0.0130
2815.00,0.0130
2814.00,0.0129
2813.00,0.0129
2812.00,0.0129
2811.00,0.0129
2810.00,0.0128
2809.00,0.0128
2808.00,0.0128
2807.00,0.0128
2806.00,0.0128
2805.00,0.0128
2804.00,0.0128
2803.00,0.0128
2802.00,0.0128
2801.00,0.0127
2800.00,0.0127
2799.00,0.0127
2798.00,0.0127
2797.00,0.0127
2796.00,0.0126
2795.00,0.0126
2794.00,0.0126
2793.00,0.0125
2792.00,0.0125
2791.00,0.0126
2790.00,0.0126
2789.00,0.0127
2788.00,0.0126
2787.00,0.0126
2786.00,0.0125
2785.00,0.0125
2784.00,0.0125
2783.00,0.0125
2782.00,0.0125
2781.00,0.0124
2780.00,0.0124
2779.00,0.0124
2778.00,0.0124
2777.00,0.0124
2776.00,0.0124
2775.00,0.0124
2774.00,0.0124
2773.00,0.0124
2772.00,0.0123
2771.00,0.0123
2770.00,0.0123
2769.00,0.0123
2768.00,0.0123
2767.00,0.0123
2766.00,0.0123
2765.00,0.0122
2764.00,0.0122
2763.00,0.0122
2762.00,0.0122
2761.00,0.0122
2760.00,0.0122
2759.00,0.0121
2758.00,0.0121
2757.00,0.0121
2756.00,0.0121
2755.00,0.0121
2754.00,0.0121
2753.00,0.0121
2752.00,0.0121
2751.00,0.0121
2750.00,0.0121
2749.00,0.0121
2748.00,0.0121
2747.00,0.0121
2746.00,0.0120
2745.00,0.0120
2744.00,0.0119
2743.00,0.0119
2742.00,0.0119
2741.00,0.0119
2740.00,0.0119
2739.00,0.0119
2738.00,0.0119
2737.00,0.0119
2736.00,0.0118
2735.00,0.0118
2734.00,0.0118
2733.00,0.0118
2732.00,0.0118
2731.00,0.0118
2730.00,0.0118
2729.00,0.0118
2728.00,0.0118
2727.00,0.0118
2726.00,0.0118
2725.00,0.0118
2724.00,0.0117
2723.00,0.0117
2722.00,0.0117
2721.00,0.0117
2720.00,0.0116
2719.00,0.0116
2718.00,0.0116
2717.00,0.0116
2716.00,0.0116
2715.00,0.0116
2714.00,0.0116
2713.00,0.0116
2712.00,0.0116
2711.00,0.0116
2710.00,0.0116
2709.00,0.0116
2708.00,0.0116
2707.00,0.0115
2706.00,0.0115
2705.00,0.0115
2704.00,0.0115
2703.00,0.0115
2702.00,0.0115
2701.00,0.0115
2700.00,0.0114
2699.00,0.0114
2698.00,0.0114
2697.00,0.0114
2696.00,0.0114
2695.00,0.0114
2694.00,0.0114
2693.00,0.0114
2692.00,0.0114
2691.00,0.0114
2690.00,0.0114
2689.00,0.0114
2688.00,0.0114
2687.00,0.0114
2686.00,0.0113
2685.00,0.0113
2684.00,0.0113
2683.00,0.0112
2682.00,0.0112
2681.00,0.0112
2680.00,0.0113
2679.00,0.0113
2678.00,0.0113
2677.00,0.0112
2676.00,0.0112
2675.00,0.0112
2674.00,0.0112
2673.00,0.0112
2672.00,0.0112
2671.00,0.0111
2670.00,0.0111
2669.00,0.0111
2668.00,0.0111
2667.00,0.0111
2666.00,0.0111
2665.00,0.0111
2664.00,0.0112
2663.00,0.0112
2662.00,0.0112
2661.00,0.0112
2660.00,0.0113
2659.00,0.0113
2658.00,0.0113
2657.00,0.0113
2656.00,0.0113
2655.00,0.0113
2654.00,0.0113
2653.00,0.0113
2652.00,0.0113
2651.00,0.0113
2650.00,0.0113
2649.00,0.0114
2648.00,0.0114
2647.00,0.0113
2646.00,0.0113
2645.00,0.0113
2644.00,0.0113
2643.00,0.0113
2642.00,0.0114
2641.00,0.0114
2640.00,0.0114
2639.00,0.0113
2638.00,0.0113
2637.00,0.0113
2636.00,0.0114
2635.00,0.0114
2634.00,0.0114
2633.00,0.0113
2632.00,0.0113
2631.00,0.0113
2630.00,0.0113
2629.00,0.0113
2628.00,0.0113
2627.00,0.0113
2626.00,0.0113
2625.00,0.0113
2624.00,0.0113
2623.00,0.0113
2622.00,0.0113
2621.00,0.0113
2620.00,0.0112
2619.00,0.0112
2618.00,0.0112
2617.00,0.0113
2616.00,0.0113
2615.00,0.0113
2614.00,0.0113
2613.00,0.0113
2612.00,0.0112
2611.00,0.0112
2610.00,0.0111
2609.00,0.0111
2608.00,0.0111
2607.00,0.0112
2606.00,0.0112
2605.00,0.0112
2604.00,0.0112
2603.00,0.0112
2602.00,0.0112
2601.00,0.0112
2600.00,0.0112
2599.00,0.0112
2598.00,0.0111
2597.00,0.0111
2596.00,0.0111
2595.00,0.0111
2594.00,0.0111
2593.00,0.0111
2592.00,0.0112
2591.00,0.0112
2590.00,0.0112
2589.00,0.0112
2588.00,0.0111
2587.00,0.0110
2586.00,0.0110
2585.00,0.0110
2584.00,0.0110
2583.00,0.0110
2582.00,0.0110
2581.00,0.0110
2580.00,0.0110
2579.00,0.0110
2578.00,0.0110
2577.00,0.0111
2576.00,0.0111
2575.00,0.0111
2574.00,0.0111
2573.00,0.0110
2572.00,0.0110
2571.00,0.0110
2570.00,0.0110
2569.00,0.0109
2568.00,0.0110
2567.00,0.0110
2566.00,0.0110
2565.00,0.0111
2564.00,0.0111
2563.00,0.0110
2562.00,0.0110
2561.00,0.0110
2560.00,0.0109
2559.00,0.0109
2558.00,0.0109
2557.00,0.0109
2556.00,0.0110
2555.00,0.0110
2554.00,0.0110
2553.00,0.0110
2552.00,0.0110
2551.00,0.0110
2550.00,0.0109
2549.00,0.0109
2548.00,0.0110
2547.00,0.0109
2546.00,0.0109
2545.00,0.0108
2544.00,0.0108
2543.00,0.0109
2542.00,0.0110
2541.00,0.0111
2540.00,0.0111
2539.00,0.0111
2538.00,0.0111
2537.00,0.0111
2536.00,0.0111
2535.00,0.0111
2534.00,0.0111
2533.00,0.0111
2532.00,0.0110
2531.00,0.0110
2530.00,0.0110
2529.00,0.0110
2528.00,0.0110
2527.00,0.0110
2526.00,0.0110
2525.00,0.0110
2524.00,0.0110
2523.00,0.0110
2522.00,0.0110
2521.00,0.0110
2520.00,0.0110
2519.00,0.0110
2518.00,0.0110
2517.00,0.0109
2516.00,0.0108
2515.00,0.0108
2514.00,0.0108
2513.00,0.0108
2512.00,0.0109
2511.00,0.0109
2510.00,0.0109
2509.00,0.0109
2508.00,0.0108
2507.00,0.0108
2506.00,0.0108
2505.00,0.0108
2504.00,0.0108
2503.00,0.0108
2502.00,0.0108
2501.00,0.0109
2500.00,0.0109
2499.00,0.0109
2498.00,0.0109
2497.00,0.0108
2496.00,0.0108
2495.00,0.0107
2494.00,0.0107
2493.00,0.0108
2492.00,0.0109
2491.00,0.0109
2490.00,0.0109
2489.00,0.0109
2488.00,0.0108
2487.00,0.0107
2486.00,0.0107
2485.00,0.0107
2484.00,0.0107
2483.00,0.0108
2482.00,0.0108
2481.00,0.0109
2480.00,0.0110
2479.00,0.0109
2478.00,0.0109
2477.00,0.0109
2476.00,0.0108
2475.00,0.0108
2474.00,0.0108
2473.00,0.0107
2472.00,0.0107
2471.00,0.0107
2470.00,0.0107
2469.00,0.0107
2468.00,0.0107
2467.00,0.0107
2466.00,0.0107
2465.00,0.0107
2464.00,0.0107
2463.00,0.0107
2462.00,0.0107
2461.00,0.0107
2460.00,0.0108
2459.00,0.0109
2458.00,0.0109
2457.00,0.0109
2456.00,0.0108
2455.00,0.0107
2454.00,0.0107
2453.00,0.0107
2452.00,0.0108
2451.00,0.0108
2450.00,0.0108
2449.00,0.0108
2448.00,0.0107
2447.00,0.0107
2446.00,0.0107
2445.00,0.0106
2444.00,0.0106
2443.00,0.0106
2442.00,0.0106
2441.00,0.0106
2440.00,0.0106
2439.00,0.0106
2438.00,0.0105
2437.00,0.0105
2436.00,0.0105
2435.00,0.0105
2434.00,0.0105
2433.00,0.0105
2432.00,0.0105
2431.00,0.0106
2430.00,0.0106
2429.00,0.0106
2428.00,0.0106
2427.00,0.0105
2426.00,0.0105
2425.00,0.0105
2424.00,0.0104
2423.00,0.0104
2422.00,0.0104
2421.00,0.0104
2420.00,0.0104
2419.00,0.0104
2418.00,0.0105
2417.00,0.0105
2416.00,0.0105
2415.00,0.0105
2414.00,0.0105
2413.00,0.0105
2412.00,0.0105
2411.00,0.0105
2410.00,0.0104
2409.00,0.0104
2408.00,0.0104
2407.00,0.0104
2406.00,0.0104
2405.00,0.0104
2404.00,0.0104
2403.00,0.0103
2402.00,0.0103
2401.00,0.0103
2400.00,0.0102
2399.00,0.0102
2398.00,0.0102
2397.00,0.0101
2396.00,0.0101
2395.00,0.0101
2394.00,0.0102
2393.00,0.0102
2392.00,0.0102
2391.00,0.0102
2390.00,0.0101
2389.00,0.0100
2388.00,0.0099
2387.00,0.0098
2386.00,0.0097
2385.00,0.0095
2384.00,0.0093
2383.00,0.0091
2382.00,0.0089
2381.00,0.0088
2380.00,0.0088
2379.00,0.0088
2378.00,0.0088
2377.00,0.0089
2376.00,0.0090
2375.00,0.0091
2374.00,0.0092
2373.00,0.0093
2372.00,0.0092
2371.00,0.0092
2370.00,0.0090
2369.00,0.0089
2368.00,0.0089
2367.00,0.0089
2366.00,0.0090
2365.00,0.0091
2364.00,0.0091
2363.00,0.0092
2362.00,0.0094
2361.00,0.0096
2360.00,0.0098
2359.00,0.0098
2358.00,0.0097
2357.00,0.0097
2356.00,0.0097
2355.00,0.0096
2354.00,0.0094
2353.00,0.0090
2352.00,0.0088
2351.00,0.0088
2350.00,0.0088
2349.00,0.0088
2348.00,0.0086
2347.00,0.0083
2346.00,0.0084
2345.00,0.0087
2344.00,0.0092
2343.00,0.0095
2342.00,0.0096
2341.00,0.0096
2340.00,0.0096
2339.00,0.0096
2338.00,0.0096
2337.00,0.0096
2336.00,0.0096
2335.00,0.0097
2334.00,0.0097
2333.00,0.0097
2332.00,0.0098
2331.00,0.0100
2330.00,0.0101
2329.00,0.0102
2328.00,0.0103
2327.00,0.0105
2326.00,0.0105
2325.00,0.0105
2324.00,0.0105
2323.00,0.0106
2322.00,0.0106
2321.00,0.0105
2320.00,0.0104
2319.00,0.0104
2318.00,0.0103
2317.00,0.0103
2316.00,0.0102
2315.00,0.0101
2314.00,0.0100
2313.00,0.0100
2312.00,0.0101
2311.00,0.0101
2310.00,0.0100
2309.00,0.0100
2308.00,0.0100
2307.00,0.0100
2306.00,0.0101
2305.00,0.0101
2304.00,0.0100
2303.00,0.0099
2302.00,0.0099
2301.00,0.0099
2300.00,0.0099
2299.00,0.0099
2298.00,0.0099
2297.00,0.0099
2296.00,0.0099
2295.00,0.0099
2294.00,0.0100
2293.00,0.0101
2292.00,0.0101
2291.00,0.0102
2290.00,0.0102
2289.00,0.0103
2288.00,0.0103
2287.00,0.0103
2286.00,0.0102
2285.00,0.0102
2284.00,0.0102
2283.00,0.0102
2282.00,0.0102
2281.00,0.0102
2280.00,0.0103
2279.00,0.0103
2278.00,0.0102
2277.00,0.0102
2276.00,0.0102
2275.00,0.0102
2274.00,0.0102
2273.00,0.0102
2272.00,0.0101
2271.00,0.0100
2270.00,0.0099
2269.00,0.0099
2268.00,0.0099
2267.00,0.0099
2266.00,0.0100
2265.00,0.0100
2264.00,0.0099
2263.00,0.0099
2262.00,0.0099
2261.00,0.0100
2260.00,0.0101
2259.00,0.0102
2258.00,0.0102
2257.00,0.0102
2256.00,0.0101
2255.00,0.0100
2254.00,0.0098
2253.00,0.0098
2252.00,0.0098
2251.00,0.0098
2250.00,0.0099
2249.00,0.0099
2248.00,0.0100
2247.00,0.0099
2246.00,0.0098
2245.00,0.0098
2244.00,0.0098
2243.00,0.0098
2242.00,0.0099
2241.00,0.0100
2240.00,0.0100
2239.00,0.0099
2238.00,0.0098
2237.00,0.0097
2236.00,0.0097
2235.00,0.0097
2234.00,0.0098
2233.00,0.0099
2232.00,0.0099
2231.00,0.0100
2230.00,0.0101
2229.00,0.0101
2228.00,0.0101
2227.00,0.0101
2226.00,0.0101
2225.00,0.0100
2224.00,0.0099
2223.00,0.0098
2222.00,0.0099
2221.00,0.0100
2220.00,0.0100
2219.00,0.0100
2218.00,0.0099
2217.00,0.0099
2216.00,0.0099
2215.00,0.0100
2214.00,0.0099
2213.00,0.0099
2212.00,0.0098
2211.00,0.0098
2210.00,0.0097
2209.00,0.0097
2208.00,0.0097
2207.00,0.0098
2206.00,0.0098
2205.00,0.0098
2204.00,0.0098
2203.00,0.0099
2202.00,0.0099
2201.00,0.0100
2200.00,0.0100
2199.00,0.0100
2198.00,0.0099
2197.00,0.0100
2196.00,0.0100
2195.00,0.0101
2194.00,0.0100
2193.00,0.0099
2192.00,0.0098
2191.00,0.0098
2190.00,0.0099
2189.00,0.0100
2188.00,0.0099
2187.00,0.0098
2186.00,0.0096
2185.00,0.0094
2184.00,0.0094
2183.00,0.0094
2182.00,0.0096
2181.00,0.0098
2180.00,0.0099
2179.00,0.0100
2178.00,0.0098
2177.00,0.0096
2176.00,0.0094
2175.00,0.0094
2174.00,0.0095
2173.00,0.0098
2172.00,0.0101
2171.00,0.0103
2170.00,0.0102
2169.00,0.0101
2168.00,0.0100
2167.00,0.0100
2166.00,0.0101
2165.00,0.0103
2164.00,0.0105
2163.00,0.0105
2162.00,0.0104
2161.00,0.0100
2160.00,0.0093
2159.00,0.0087
2158.00,0.0083
2157.00,0.0082
2156.00,0.0083
2155.00,0.0084
2154.00,0.0085
2153.00,0.0086
2152.00,0.0086
2151.00,0.0086
2150.00,0.0086
2149.00,0.0084
2148.00,0.0083
2147.00,0.0082
2146.00,0.0081
2145.00,0.0082
2144.00,0.0082
2143.00,0.0083
2142.00,0.0083
2141.00,0.0084
2140.00,0.0084
2139.00,0.0084
2138.00,0.0083
2137.00,0.0082
2136.00,0.0080
2135.00,0.0079
2134.00,0.0078
2133.00,0.0078
2132.00,0.0079
2131.00,0.0081
2130.00,0.0081
2129.00,0.0082
2128.00,0.0081
2127.00,0.0080
2126.00,0.0080
2125.00,0.0080
2124.00,0.0080
2123.00,0.0081
2122.00,0.0082
2121.00,0.0084
2120.00,0.0085
2119.00,0.0086
2118.00,0.0086
2117.00,0.0087
2116.00,0.0087
2115.00,0.0087
2114.00,0.0087
2113.00,0.0086
2112.00,0.0086
2111.00,0.0085
2110.00,0.0085
2109.00,0.0086
2108.00,0.0086
2107.00,0.0086
2106.00,0.0085
2105.00,0.0085
2104.00,0.0084
2103.00,0.0084
2102.00,0.0084
2101.00,0.0084
2100.00,0.0084
2099.00,0.0084
2098.00,0.0084
2097.00,0.0084
2096.00,0.0083
2095.00,0.0082
2094.00,0.0082
2093.00,0.0083
2092.00,0.0084
2091.00,0.0086
2090.00,0.0086
2089.00,0.0086
2088.00,0.0085
2087.00,0.0084
2086.00,0.0083
2085.00,0.0083
2084.00,0.0083
2083.00,0.0083
2082.00,0.0083
2081.00,0.0083
2080.00,0.0083
2079.00,0.0084
2078.00,0.0084
2077.00,0.0085
2076.00,0.0085
2075.00,0.0085
2074.00,0.0084
2073.00,0.0083
2072.00,0.0082
2071.00,0.0082
2070.00,0.0083
2069.00,0.0083
2068.00,0.0083
2067.00,0.0083
2066.00,0.0084
2065.00,0.0084
2064.00,0.0085
2063.00,0.0084
2062.00,0.0084
2061.00,0.0084
2060.00,0.0084
2059.00,0.0084
2058.00,0.0084
2057.00,0.0084
2056.00,0.0084
2055.00,0.0083
2054.00,0.0084
2053.00,0.0086
2052.00,0.0088
2051.00,0.0088
2050.00,0.0088
2049.00,0.0086
2048.00,0.0085
2047.00,0.0084
2046.00,0.0084
2045.00,0.0085
2044.00,0.0085
2043.00,0.0086
2042.00,0.0086
2041.00,0.0087
2040.00,0.0088
2039.00,0.0089
2038.00,0.0089
2037.00,0.0089
2036.00,0.0088
2035.00,0.0087
2034.00,0.0086
2033.00,0.0086
2032.00,0.0086
2031.00,0.0087
2030.00,0.0087
2029.00,0.0086
2028.00,0.0084
2027.00,0.0082
2026.00,0.0082
2025.00,0.0081
2024.00,0.0081
2023.00,0.0082
2022.00,0.0083
2021.00,0.0085
2020.00,0.0086
2019.00,0.0085
2018.00,0.0083
2017.00,0.0081
2016.00,0.0081
2015.00,0.0081
2014.00,0.0081
2013.00,0.0082
2012.00,0.0081
2011.00,0.0081
2010.00,0.0080
2009.00,0.0079
2008.00,0.0078
2007.00,0.0076
2006.00,0.0076
2005.00,0.0077
2004.00,0.0078
2003.00,0.0080
2002.00,0.0081
2001.00,0.0082
2000.00,0.0082
1999.00,0.0081
1998.00,0.0081
1997.00,0.0081
1996.00,0.0082
1995.00,0.0082
1994.00,0.0083
1993.00,0.0083
1992.00,0.0083
1991.00,0.0083
1990.00,0.0083
1989.00,0.0083
1988.00,0.0082
1987.00,0.0081
1986.00,0.0080
1985.00,0.0081
1984.00,0.0082
1983.00,0.0084
1982.00,0.0086
1981.00,0.0088
1980.00,0.0088
1979.00,0.0086
1978.00,0.0083
1977.00,0.0082
1976.00,0.0082
1975.00,0.0081
1974.00,0.0080
1973.00,0.0079
1972.00,0.0079
1971.00,0.0080
1970.00,0.0081
1969.00,0.0082
1968.00,0.0082
1967.00,0.0081
1966.00,0.0078
1965.00,0.0076
1964.00,0.0075
1963.00,0.0076
1962.00,0.0078
1961.00,0.0078
1960.00,0.0077
1959.00,0.0075
1958.00,0.0074
1957.00,0.0072
1956.00,0.0070
1955.00,0.0069
1954.00,0.0069
1953.00,0.0071
1952.00,0.0072
1951.00,0.0073
1950.00,0.0073
1949.00,0.0072
1948.00,0.0071
1947.00,0.0072
1946.00,0.0073
1945.00,0.0074
1944.00,0.0074
1943.00,0.0072
1942.00,0.0069
1941.00,0.0068
1940.00,0.0068
1939.00,0.0068
1938.00,0.0068
1937.00,0.0069
1936.00,0.0070
1935.00,0.0070
1934.00,0.0070
1933.00,0.0070
1932.00,0.0070
1931.00,0.0071
1930.00,0.0071
1929.00,0.0070
1928.00,0.0070
1927.00,0.0069
1926.00,0.0069
1925.00,0.0070
1924.00,0.0071
1923.00,0.0071
1922.00,0.0070
1921.00,0.0069
1920.00,0.0070
1919.00,0.0070
1918.00,0.0069
1917.00,0.0068
1916.00,0.0067
1915.00,0.0066
1914.00,0.0066
1913.00,0.0065
1912.00,0.0065
1911.00,0.0066
1910.00,0.0066
1909.00,0.0066
1908.00,0.0066
1907.00,0.0065
1906.00,0.0065
1905.00,0.0066
1904.00,0.0066
1903.00,0.0066
1902.00,0.0065
1901.00,0.0064
1900.00,0.0063
1899.00,0.0062
1898.00,0.0062
1897.00,0.0062
1896.00,0.0062
1895.00,0.0063
1894.00,0.0063
1893.00,0.0064
1892.00,0.0064
1891.00,0.0063
1890.00,0.0062
1889.00,0.0061
1888.00,0.0061
1887.00,0.0062
1886.00,0.0063
1885.00,0.0063
1884.00,0.0062
1883.00,0.0061
1882.00,0.0061
1881.00,0.0061
1880.00,0.0061
1879.00,0.0060
1878.00,0.0059
1877.00,0.0059
1876.00,0.0058
1875.00,0.0058
1874.00,0.0058
1873.00,0.0059
1872.00,0.0061
1871.00,0.0062
1870.00,0.0061
1869.00,0.0059
1868.00,0.0057
1867.00,0.0057
1866.00,0.0058
1865.00,0.0058
1864.00,0.0058
1863.00,0.0058
1862.00,0.0057
1861.00,0.0057
1860.00,0.0057
1859.00,0.0057
1858.00,0.0056
1857.00,0.0056
1856.00,0.0056
1855.00,0.0056
1854.00,0.0056
1853.00,0.0055
1852.00,0.0054
1851.00,0.0054
1850.00,0.0054
1849.00,0.0054
1848.00,0.0054
1847.00,0.0055
1846.00,0.0055
1845.00,0.0053
1844.00,0.0050
1843.00,0.0049
1842.00,0.0050
1841.00,0.0052
1840.00,0.0053
1839.00,0.0053
1838.00,0.0052
1837.00,0.0051
1836.00,0.0050
1835.00,0.0050
1834.00,0.0051
1833.00,0.0053
1832.00,0.0054
1831.00,0.0053
1830.00,0.0051
1829.00,0.0050
1828.00,0.0050
1827.00,0.0051
1826.00,0.0051
1825.00,0.0050
1824.00,0.0049
1823.00,0.0048
1822.00,0.0048
1821.00,0.0048
1820.00,0.0048
1819.00,0.0047
1818.00,0.0046
1817.00,0.0046
1816.00,0.0046
1815.00,0.0046
1814.00,0.0047
1813.00,0.0047
1812.00,0.0047
1811.00,0.0047
1810.00,0.0046
1809.00,0.0045
1808.00,0.0045
1807.00,0.0045
1806.00,0.0046
1805.00,0.0047
1804.00,0.0049
1803.00,0.0050
1802.00,0.0050
1801.00,0.0050
1800.00,0.0049
1799.00,0.0048
1798.00,0.0048
1797.00,0.0049
1796.00,0.0050
1795.00,0.0052
1794.00,0.0052
1793.00,0.0051
1792.00,0.0050
1791.00,0.0049
1790.00,0.0050
1789.00,0.0052
1788.00,0.0053
1787.00,0.0053
1786.00,0.0053
1785.00,0.0053
1784.00,0.0054
1783.00,0.0056
1782.00,0.0057
1781.00,0.0058
1780.00,0.0058
1779.00,0.0058
1778.00,0.0059
1777.00,0.0061
1776.00,0.0063
1775.00,0.0065
1774.00,0.0066
1773.00,0.0065
1772.00,0.0063
1771.00,0.0062
1770.00,0.0063
1769.00,0.0064
1768.00,0.0065
1767.00,0.0065
1766.00,0.0066
1765.00,0.0069
1764.00,0.0072
1763.00,0.0072
1762.00,0.0072
1761.00,0.0072
1760.00,0.0073
1759.00,0.0075
1758.00,0.0076
1757.00,0.0076
1756.00,0.0075
1755.00,0.0076
1754.00,0.0077
1753.00,0.0079
1752.00,0.0080
1751.00,0.0081
1750.00,0.0082
1749.00,0.0084
1748.00,0.0086
1747.00,0.0087
1746.00,0.0088
1745.00,0.0089
1744.00,0.0091
1743.00,0.0092
1742.00,0.0093
1741.00,0.0094
1740.00,0.0093
1739.00,0.0093
1738.00,0.0095
1737.00,0.0098
1736.00,0.0100
1735.00,0.0099
1734.00,0.0097
1733.00,0.0098
1732.00,0.0101
1731.00,0.0105
1730.00,0.0108
1729.00,0.0109
1728.00,0.0110
1727.00,0.0111
1726.00,0.0112
1725.00,0.0113
1724.00,0.0115
1723.00,0.0116
1722.00,0.0117
1721.00,0.0119
1720.00,0.0120
1719.00,0.0119
1718.00,0.0118
1717.00,0.0119
1716.00,0.0121
1715.00,0.0123
1714.00,0.0124
1713.00,0.0125
1712.00,0.0126
1711.00,0.0126
1710.00,0.0126
1709.00,0.0127
1708.00,0.0128
1707.00,0.0129
1706.00,0.0130
1705.00,0.0130
1704.00,0.0131
1703.00,0.0132
1702.00,0.0132
1701.00,0.0129
1700.00,0.0126
1699.00,0.0126
1698.00,0.0129
1697.00,0.0132
1696.00,0.0131
1695.00,0.0128
1694.00,0.0128
1693.00,0.0130
1692.00,0.0132
1691.00,0.0133
1690.00,0.0133
1689.00,0.0134
1688.00,0.0135
1687.00,0.0136
1686.00,0.0135
1685.00,0.0133
1684.00,0.0132
1683.00,0.0133
1682.00,0.0136
1681.00,0.0138
1680.00,0.0139
1679.00,0.0139
1678.00,0.0140
1677.00,0.0140
1676.00,0.0139
1675.00,0.0138
1674.00,0.0139
1673.00,0.0141
1672.00,0.0144
1671.00,0.0145
1670.00,0.0146
1669.00,0.0146
1668.00,0.0147
1667.00,0.0147
1666.00,0.0148
1665.00,0.0150
1664.00,0.0150
1663.00,0.0151
1662.00,0.0152
1661.00,0.0153
1660.00,0.0154
1659.00,0.0155
1658.00,0.0155
1657.00,0.0156
1656.00,0.0157
1655.00,0.0158
1654.00,0.0157
1653.00,0.0158
1652.00,0.0157
1651.00,0.0158
1650.00,0.0162
1649.00,0.0166
1648.00,0.0167
1647.00,0.0168
1646.00,0.0169
1645.00,0.0169
1644.00,0.0169
1643.00,0.0171
1642.00,0.0172
1641.00,0.0173
1640.00,0.0173
1639.00,0.0173
1638.00,0.0173
1637.00,0.0174
1636.00,0.0176
1635.00,0.0178
1634.00,0.0179
1633.00,0.0179
1632.00,0.0180
1631.00,0.0181
1630.00,0.0182
1629.00,0.0184
1628.00,0.0185
1627.00,0.0186
1626.00,0.0187
1625.00,0.0188
1624.00,0.0190
1623.00,0.0191
1622.00,0.0192
1621.00,0.0193
1620.00,0.0193
1619.00,0.0193
1618.00,0.0193
1617.00,0.0194
1616.00,0.0195
1615.00,0.0196
1614.00,0.0197
1613.00,0.0198
1612.00,0.0199
1611.00,0.0199
1610.00,0.0201
1609.00,0.0203
1608.00,0.0204
1607.00,0.0204
1606.00,0.0205
1605.00,0.0205
1604.00,0.0206
1603.00,0.0207
1602.00,0.0209
1601.00,0.0209
1600.00,0.0209
1599.00,0.0210
1598.00,0.0210
1597.00,0.0211
1596.00,0.0212
1595.00,0.0213
1594.00,0.0214
1593.00,0.0214
1592.00,0.0214
1591.00,0.0214
1590.00,0.0215
1589.00,0.0216
1588.00,0.0216
1587.00,0.0216
1586.00,0.0217
1585.00,0.0217
1584.00,0.0217
1583.00,0.0217
1582.00,0.0218
1581.00,0.0219
1580.00,0.0219
1579.00,0.0220
1578.00,0.0220
1577.00,0.0221
1576.00,0.0222
1575.00,0.0223
1574.00,0.0223
1573.00,0.0223
1572.00,0.0223
1571.00,0.0223
1570.00,0.0224
1569.00,0.0225
1568.00,0.0224
1567.00,0.0224
1566.00,0.0224
1565.00,0.0224
1564.00,0.0223
1563.00,0.0223
1562.00,0.0221
1561.00,0.0217
1560.00,0.0215
1559.00,0.0223
1558.00,0.0227
1557.00,0.0225
1556.00,0.0223
1555.00,0.0223
1554.00,0.0222
1553.00,0.0221
1552.00,0.0220
1551.00,0.0221
1550.00,0.0221
1549.00,0.0220
1548.00,0.0218
1547.00,0.0217
1546.00,0.0215
1545.00,0.0215
1544.00,0.0216
1543.00,0.0217
1542.00,0.0215
1541.00,0.0214
1540.00,0.0216
1539.00,0.0215
1538.00,0.0212
1537.00,0.0210
1536.00,0.0210
1535.00,0.0209
1534.00,0.0208
1533.00,0.0209
1532.00,0.0208
1531.00,0.0206
1530.00,0.0204
1529.00,0.0202
1528.00,0.0201
1527.00,0.0200
1526.00,0.0199
1525.00,0.0199
1524.00,0.0197
1523.00,0.0196
1522.00,0.0195
1521.00,0.0194
1520.00,0.0194
1519.00,0.0194
1518.00,0.0194
1517.00,0.0194
1516.00,0.0193
1515.00,0.0191
1514.00,0.0189
1513.00,0.0187
1512.00,0.0186
1511.00,0.0185
1510.00,0.0185
1509.00,0.0186
1508.00,0.0188
1507.00,0.0190
1506.00,0.0187
1505.00,0.0181
1504.00,0.0179
1503.00,0.0178
1502.00,0.0178
1501.00,0.0177
1500.00,0.0176
1499.00,0.0174
1498.00,0.0173
1497.00,0.0172
1496.00,0.0173
1495.00,0.0174
1494.00,0.0174
1493.00,0.0175
1492.00,0.0175
1491.00,0.0175
1490.00,0.0176
1489.00,0.0178
1488.00,0.0178
1487.00,0.0177
1486.00,0.0176
1485.00,0.0174
1484.00,0.0173
1483.00,0.0173
1482.00,0.0173
1481.00,0.0173
1480.00,0.0173
1479.00,0.0172
1478.00,0.0172
1477.00,0.0173
1476.00,0.0173
1475.00,0.0173
1474.00,0.0174
1473.00,0.0174
1472.00,0.0174
1471.00,0.0174
1470.00,0.0174
1469.00,0.0174
1468.00,0.0175
1467.00,0.0175
1466.00,0.0176
1465.00,0.0176
1464.00,0.0176
1463.00,0.0176
1462.00,0.0176
1461.00,0.0176
1460.00,0.0176
1459.00,0.0175
1458.00,0.0175
1457.00,0.0177
1456.00,0.0177
1455.00,0.0177
1454.00,0.0178
1453.00,0.0179
1452.00,0.0179
1451.00,0.0180
1450.00,0.0180
1449.00,0.0181
1448.00,0.0183
1447.00,0.0183
1446.00,0.0183
1445.00,0.0183
1444.00,0.0183
1443.00,0.0183
1442.00,0.0183
1441.00,0.0183
1440.00,0.0183
1439.00,0.0183
1438.00,0.0183
1437.00,0.0183
1436.00,0.0185
1435.00,0.0186
1434.00,0.0187
1433.00,0.0188
1432.00,0.0188
1431.00,0.0189
1430.00,0.0189
1429.00,0.0189
1428.00,0.0189
1427.00,0.0189
1426.00,0.0189
1425.00,0.0190
1424.00,0.0191
1423.00,0.0192
1422.00,0.0192
1421.00,0.0190
1420.00,0.0190
1419.00,0.0191
1418.00,0.0194
1417.00,0.0195
1416.00,0.0196
1415.00,0.0196
1414.00,0.0195
1413.00,0.0195
1412.00,0.0196
1411.00,0.0197
1410.00,0.0197
1409.00,0.0197
1408.00,0.0198
1407.00,0.0198
1406.00,0.0199
1405.00,0.0201
1404.00,0.0202
1403.00,0.0203
1402.00,0.0203
1401.00,0.0204
1400.00,0.0205
1399.00,0.0206
1398.00,0.0207
1397.00,0.0208
1396.00,0.0209
1395.00,0.0210
1394.00,0.0210
1393.00,0.0209
1392.00,0.0209
1391.00,0.0208
1390.00,0.0208
1389.00,0.0208
1388.00,0.0209
1387.00,0.0211
1386.00,0.0212
1385.00,0.0212
1384.00,0.0212
1383.00,0.0212
1382.00,0.0212
1381.00,0.0212
1380.00,0.0212
1379.00,0.0213
1378.00,0.0213
1377.00,0.0213
1376.00,0.0214
1375.00,0.0215
1374.00,0.0216
1373.00,0.0216
1372.00,0.0215
1371.00,0.0215
1370.00,0.0215
1369.00,0.0215
1368.00,0.0215
1367.00,0.0214
1366.00,0.0213
1365.00,0.0213
1364.00,0.0213
1363.00,0.0215
1362.00,0.0216
1361.00,0.0216
1360.00,0.0216
1359.00,0.0215
1358.00,0.0215
1357.00,0.0214
1356.00,0.0214
1355.00,0.0214
1354.00,0.0214
1353.00,0.0213
1352.00,0.0213
1351.00,0.0212
1350.00,0.0211
1349.00,0.0211
1348.00,0.0211
1347.00,0.0211
1346.00,0.0211
1345.00,0.0211
1344.00,0.0211
1343.00,0.0210
1342.00,0.0210
1341.00,0.0211
1340.00,0.0212
1339.00,0.0213
1338.00,0.0214
1337.00,0.0213
1336.00,0.0212
1335.00,0.0211
1334.00,0.0210
1333.00,0.0209
1332.00,0.0209
1331.00,0.0208
1330.00,0.0208
1329.00,0.0208
1328.00,0.0207
1327.00,0.0207
1326.00,0.0207
1325.00,0.0207
1324.00,0.0207
1323.00,0.0207
1322.00,0.0206
1321.00,0.0205
1320.00,0.0205
1319.00,0.0205
1318.00,0.0206
1317.00,0.0206
1316.00,0.0207
1315.00,0.0207
1314.00,0.0207
1313.00,0.0207
1312.00,0.0206
1311.00,0.0206
1310.00,0.0205
1309.00,0.0205
1308.00,0.0205
1307.00,0.0206
1306.00,0.0206
1305.00,0.0205
1304.00,0.0205
1303.00,0.0205
1302.00,0.0205
1301.00,0.0205
1300.00,0.0206
1299.00,0.0206
1298.00,0.0206
1297.00,0.0206
1296.00,0.0206
1295.00,0.0206
1294.00,0.0206
1293.00,0.0206
1292.00,0.0206
1291.00,0.0206
1290.00,0.0206
1289.00,0.0207
1288.00,0.0207
1287.00,0.0208
1286.00,0.0208
1285.00,0.0208
1284.00,0.0208
1283.00,0.0208
1282.00,0.0208
1281.00,0.0208
1280.00,0.0209
1279.00,0.0210
1278.00,0.0210
1277.00,0.0210
1276.00,0.0211
1275.00,0.0211
1274.00,0.0212
1273.00,0.0212
1272.00,0.0212
1271.00,0.0212
1270.00,0.0212
1269.00,0.0211
1268.00,0.0211
1267.00,0.0211
1266.00,0.0211
1265.00,0.0211
1264.00,0.0210
1263.00,0.0210
1262.00,0.0210
1261.00,0.0211
1260.00,0.0212
1259.00,0.0212
1258.00,0.0213
1257.00,0.0213
1256.00,0.0214
1255.00,0.0215
1254.00,0.0216
1253.00,0.0217
1252.00,0.0218
1251.00,0.0219
1250.00,0.0219
1249.00,0.0219
1248.00,0.0219
1247.00,0.0219
1246.00,0.0220
1245.00,0.0220
1244.00,0.0220
1243.00,0.0220
1242.00,0.0221
1241.00,0.0221
1240.00,0.0221
1239.00,0.0221
1238.00,0.0221
1237.00,0.0221
1236.00,0.0221
1235.00,0.0221
1234.00,0.0220
1233.00,0.0220
1232.00,0.0220
1231.00,0.0221
1230.00,0.0221
1229.00,0.0221
1228.00,0.0221
1227.00,0.0220
1226.00,0.0221
1225.00,0.0221
1224.00,0.0221
1223.00,0.0221
1222.00,0.0221
1221.00,0.0221
1220.00,0.0220
1219.00,0.0220
1218.00,0.0220
1217.00,0.0220
1216.00,0.0220
1215.00,0.0219
1214.00,0.0219
1213.00,0.0219
1212.00,0.0218
1211.00,0.0219
1210.00,0.0219
1209.00,0.0219
1208.00,0.0218
1207.00,0.0218
1206.00,0.0218
1205.00,0.0218
1204.00,0.0218
1203.00,0.0219
1202.00,0.0218
1201.00,0.0218
1200.00,0.0218
1199.00,0.0218
1198.00,0.0217
1197.00,0.0217
1196.00,0.0218
1195.00,0.0218
1194.00,0.0218
1193.00,0.0218
1192.00,0.0218
1191.00,0.0218
1190.00,0.0218
1189.00,0.0219
1188.00,0.0219
1187.00,0.0219
1186.00,0.0220
1185.00,0.0220
1184.00,0.0220
1183.00,0.0221
1182.00,0.0220
1181.00,0.0220
1180.00,0.0221
1179.00,0.0221
1178.00,0.0222
1177.00,0.0222
1176.00,0.0222
1175.00,0.0222
1174.00,0.0222
1173.00,0.0222
1172.00,0.0222
1171.00,0.0222
1170.00,0.0222
1169.00,0.0223
1168.00,0.0224
1167.00,0.0224
1166.00,0.0225
1165.00,0.0225
1164.00,0.0225
1163.00,0.0225
1162.00,0.0225
1161.00,0.0225
1160.00,0.0225
1159.00,0.0225
1158.00,0.0225
1157.00,0.0225
1156.00,0.0224
1155.00,0.0224
1154.00,0.0225
1153.00,0.0225
1152.00,0.0225
1151.00,0.0224
1150.00,0.0224
1149.00,0.0224
1148.00,0.0224
1147.00,0.0225
1146.00,0.0225
1145.00,0.0224
1144.00,0.0224
1143.00,0.0223
1142.00,0.0222
1141.00,0.0222
1140.00,0.0221
1139.00,0.0222
1138.00,0.0222
1137.00,0.0223
1136.00,0.0223
1135.00,0.0224
1134.00,0.0224
1133.00,0.0224
1132.00,0.0224
1131.00,0.0223
1130.00,0.0223
1129.00,0.0224
1128.00,0.0224
1127.00,0.0225
1126.00,0.0226
1125.00,0.0227
1124.00,0.0227
1123.00,0.0226
1122.00,0.0225
1121.00,0.0224
1120.00,0.0225
1119.00,0.0226
1118.00,0.0228
1117.00,0.0228
1116.00,0.0228
1115.00,0.0228
1114.00,0.0228
1113.00,0.0228
1112.00,0.0227
1111.00,0.0227
1110.00,0.0227
1109.00,0.0227
1108.00,0.0228
1107.00,0.0229
1106.00,0.0230
1105.00,0.0230
1104.00,0.0231
1103.00,0.0232
1102.00,0.0232
1101.00,0.0231
1100.00,0.0231
1099.00,0.0231
1098.00,0.0231
1097.00,0.0231
1096.00,0.0232
1095.00,0.0232
1094.00,0.0233
1093.00,0.0234
1092.00,0.0236
1091.00,0.0236
1090.00,0.0236
1089.00,0.0236
1088.00,0.0236
1087.00,0.0237
1086.00,0.0237
1085.00,0.0238
1084.00,0.0239
1083.00,0.0240
1082.00,0.0241
1081.00,0.0241
1080.00,0.0239
1079.00,0.0239
1078.00,0.0239
1077.00,0.0240
1076.00,0.0241
1075.00,0.0242
1074.00,0.0242
1073.00,0.0243
1072.00,0.0243
1071.00,0.0243
1070.00,0.0243
1069.00,0.0243
1068.00,0.0243
1067.00,0.0243
1066.00,0.0243
1065.00,0.0244
1064.00,0.0244
1063.00,0.0243
1062.00,0.0242
1061.00,0.0241
1060.00,0.0242
1059.00,0.0242
1058.00,0.0243
1057.00,0.0243
1056.00,0.0243
1055.00,0.0243
1054.00,0.0243
1053.00,0.0244
1052.00,0.0245
1051.00,0.0246
1050.00,0.0246
1049.00,0.0246
1048.00,0.0246
1047.00,0.0247
1046.00,0.0247
1045.00,0.0247
1044.00,0.0247
1043.00,0.0246
1042.00,0.0246
1041.00,0.0246
1040.00,0.0246
1039.00,0.0246
1038.00,0.0245
1037.00,0.0245
1036.00,0.0245
1035.00,0.0246
1034.00,0.0246
1033.00,0.0247
1032.00,0.0246
1031.00,0.0246
1030.00,0.0245
1029.00,0.0244
1028.00,0.0244
1027.00,0.0243
1026.00,0.0241
1025.00,0.0240
1024.00,0.0240
1023.00,0.0240
1022.00,0.0241
1021.00,0.0241
1020.00,0.0241
1019.00,0.0240
1018.00,0.0240
1017.00,0.0240
1016.00,0.0240
1015.00,0.0241
1014.00,0.0241
1013.00,0.0242
1012.00,0.0242
1011.00,0.0242
1010.00,0.0242
1009.00,0.0242
1008.00,0.0243
1007.00,0.0244
1006.00,0.0244
1005.00,0.0245
1004.00,0.0245
1003.00,0.0244
1002.00,0.0244
1001.00,0.0243
1000.00,0.0242
999.00,0.0242
998.00,0.0242
997.00,0.0241
996.00,0.0241
995.00,0.0240
994.00,0.0239
993.00,0.0239
992.00,0.0239
991.00,0.0238
990.00,0.0237
989.00,0.0235
988.00,0.0235
987.00,0.0235
986.00,0.0236
985.00,0.0236
984.00,0.0236
983.00,0.0235
982.00,0.0235
981.00,0.0235
980.00,0.0234
979.00,0.0233
978.00,0.0232
977.00,0.0231
976.00,0.0230
975.00,0.0229
974.00,0.0229
973.00,0.0229
972.00,0.0228
971.00,0.0228
970.00,0.0228
969.00,0.0228
968.00,0.0229
967.00,0.0229
966.00,0.0229
965.00,0.0228
964.00,0.0228
963.00,0.0226
962.00,0.0225
961.00,0.0224
960.00,0.0223
959.00,0.0223
958.00,0.0224
957.00,0.0224
956.00,0.0224
955.00,0.0225
954.00,0.0226
953.00,0.0226
952.00,0.0226
951.00,0.0225
950.00,0.0225
949.00,0.0225
948.00,0.0225
947.00,0.0225
946.00,0.0225
945.00,0.0226
944.00,0.0226
943.00,0.0226
942.00,0.0226
941.00,0.0226
940.00,0.0226
939.00,0.0226
938.00,0.0226
937.00,0.0226
936.00,0.0226
935.00,0.0227
934.00,0.0227
933.00,0.0226
932.00,0.0224
931.00,0.0223
930.00,0.0222
929.00,0.0222
928.00,0.0222
927.00,0.0223
926.00,0.0223
925.00,0.0224
924.00,0.0224
923.00,0.0225
922.00,0.0225
921.00,0.0226
920.00,0.0226
919.00,0.0227
918.00,0.0228
917.00,0.0228
916.00,0.0228
915.00,0.0228
914.00,0.0228
913.00,0.0229
912.00,0.0230
911.00,0.0231
910.00,0.0231
909.00,0.0231
908.00,0.0230
907.00,0.0229
906.00,0.0229
905.00,0.0228
904.00,0.0227
903.00,0.0226
902.00,0.0225
901.00,0.0224
900.00,0.0225
899.00,0.0225
898.00,0.0225
897.00,0.0224
896.00,0.0224
895.00,0.0223
894.00,0.0223
893.00,0.0224
892.00,0.0224
891.00,0.0224
890.00,0.0224
889.00,0.0224
888.00,0.0224
887.00,0.0225
886.00,0.0226
885.00,0.0226
884.00,0.0226
883.00,0.0225
882.00,0.0225
881.00,0.0225
880.00,0.0225
879.00,0.0225
878.00,0.0225
877.00,0.0224
876.00,0.0223
875.00,0.0221
874.00,0.0220
873.00,0.0219
872.00,0.0219
871.00,0.0218
870.00,0.0217
869.00,0.0216
868.00,0.0216
867.00,0.0217
866.00,0.0217
865.00,0.0217
864.00,0.0217
863.00,0.0217
862.00,0.0217
861.00,0.0217
860.00,0.0217
859.00,0.0218
858.00,0.0218
857.00,0.0218
856.00,0.0219
855.00,0.0219
854.00,0.0220
853.00,0.0219
852.00,0.0217
851.00,0.0215
850.00,0.0215
849.00,0.0215
848.00,0.0216
847.00,0.0218
846.00,0.0219
845.00,0.0220
844.00,0.0221
843.00,0.0221
842.00,0.0221
841.00,0.0220
840.00,0.0219
839.00,0.0220
838.00,0.0222
837.00,0.0224
836.00,0.0225
835.00,0.0225
834.00,0.0224
833.00,0.0224
832.00,0.0224
831.00,0.0225
830.00,0.0227
829.00,0.0228
828.00,0.0228
827.00,0.0227
826.00,0.0226
825.00,0.0226
824.00,0.0226
823.00,0.0227
822.00,0.0228
821.00,0.0229
820.00,0.0229
819.00,0.0228
818.00,0.0228
817.00,0.0226
816.00,0.0225
815.00,0.0223
814.00,0.0223
813.00,0.0222
812.00,0.0223
811.00,0.0225
810.00,0.0227
809.00,0.0229
808.00,0.0229
807.00,0.0229
806.00,0.0229
805.00,0.0229
804.00,0.0228
803.00,0.0228
802.00,0.0229
801.00,0.0230
800.00,0.0232
799.00,0.0232
798.00,0.0231
797.00,0.0230
796.00,0.0231
795.00,0.0233
794.00,0.0234
793.00,0.0234
792.00,0.0234
791.00,0.0233
790.00,0.0234
789.00,0.0236
788.00,0.0237
787.00,0.0239
786.00,0.0240
785.00,0.0240
784.00,0.0241
783.00,0.0241
782.00,0.0242
781.00,0.0243
780.00,0.0245
779.00,0.0246
778.00,0.0247
777.00,0.0247
776.00,0.0247
775.00,0.0247
774.00,0.0248
773.00,0.0248
772.00,0.0249
771.00,0.0249
770.00,0.0247
769.00,0.0245
768.00,0.0244
767.00,0.0244
766.00,0.0244
765.00,0.0245
764.00,0.0246
763.00,0.0246
762.00,0.0246
761.00,0.0246
760.00,0.0249
759.00,0.0252
758.00,0.0255
757.00,0.0256
756.00,0.0256
755.00,0.0255
754.00,0.0255
753.00,0.0255
752.00,0.0256
751.00,0.0256
750.00,0.0256
749.00,0.0255
748.00,0.0253
747.00,0.0253
746.00,0.0253
745.00,0.0253
744.00,0.0254
743.00,0.0254
742.00,0.0253
741.00,0.0252
740.00,0.0251
739.00,0.0250
738.00,0.0250
737.00,0.0250
736.00,0.0249
735.00,0.0248
734.00,0.0248
733.00,0.0248
732.00,0.0249
731.00,0.0250
730.00,0.0251
729.00,0.0251
728.00,0.0250
727.00,0.0250
726.00,0.0250
725.00,0.0250
724.00,0.0250
723.00,0.0251
722.00,0.0251
721.00,0.0252
720.00,0.0253
719.00,0.0253
718.00,0.0253
717.00,0.0252
716.00,0.0251
715.00,0.0252
714.00,0.0254
713.00,0.0257
712.00,0.0260
711.00,0.0261
710.00,0.0262
709.00,0.0261
708.00,0.0259
707.00,0.0258
706.00,0.0259
705.00,0.0261
704.00,0.0262
703.00,0.0264
702.00,0.0264
701.00,0.0263
700.00,0.0262
699.00,0.0263
698.00,0.0263
697.00,0.0264
696.00,0.0264
695.00,0.0263
694.00,0.0261
693.00,0.0258
692.00,0.0257
691.00,0.0258
690.00,0.0260
689.00,0.0261
688.00,0.0260
687.00,0.0260
686.00,0.0260
685.00,0.0260
684.00,0.0261
683.00,0.0261
682.00,0.0262
681.00,0.0263
680.00,0.0263
679.00,0.0262
678.00,0.0264
677.00,0.0267
676.00,0.0270
675.00,0.0272
674.00,0.0272
673.00,0.0270
672.00,0.0268
671.00,0.0268
670.00,0.0271
669.00,0.0279
668.00,0.0292
667.00,0.0297
666.00,0.0291
665.00,0.0284
664.00,0.0276
663.00,0.0268
662.00,0.0261
661.00,0.0260
660.00,0.0265
659.00,0.0272
658.00,0.0276
657.00,0.0275
656.00,0.0272
655.00,0.0270
654.00,0.0273
653.00,0.0279
652.00,0.0278
651.00,0.0278
650.00,0.0277
