Created as New Dataset,
cm-1,A
4000.00,0.0050
3999.00,0.0050
3998.00,0.0050
3997.00,0.0049
3996.00,0.0049
3995.00,0.0049
3994.00,0.0051
3993.00,0.0051
3992.00,0.0051
3991.00,0.0051
3990.00,0.0051
3989.00,0.0051
3988.00,0.0051
3987.00,0.0051
3986.00,0.0051
3985.00,0.0051
3984.00,0.0051
3983.00,0.0051
3982.00,0.0051
3981.00,0.0051
3980.00,0.0052
3979.00,0.0052
3978.00,0.0052
3977.00,0.0052
3976.00,0.0052
3975.00,0.0052
3974.00,0.0052
3973.00,0.0052
3972.00,0.0052
3971.00,0.0051
3970.00,0.0051
3969.00,0.0050
3968.00,0.0050
3967.00,0.0049
3966.00,0.0050
3965.00,0.0050
3964.00,0.0050
3963.00,0.0051
3962.00,0.0051
3961.00,0.0052
3960.00,0.0052
3959.00,0.0052
3958.00,0.0052
3957.00,0.0051
3956.00,0.0051
3955.00,0.0051
3954.00,0.0051
3953.00,0.0052
3952.00,0.0052
3951.00,0.0053
3950.00,0.0053
3949.00,0.0053
3948.00,0.0053
3947.00,0.0054
3946.00,0.0054
3945.00,0.0055
3944.00,0.0055
3943.00,0.0054
3942.00,0.0053
3941.00,0.0053
3940.00,0.0053
3939.00,0.0053
3938.00,0.0052
3937.00,0.0052
3936.00,0.0052
3935.00,0.0053
3934.00,0.0053
3933.00,0.0054
3932.00,0.0054
3931.00,0.0054
3930.00,0.0054
3929.00,0.0054
3928.00,0.0055
3927.00,0.0055
3926.00,0.0055
3925.00,0.0054
3924.00,0.0054
3923.00,0.0054
3922.00,0.0054
3921.00,0.0053
3920.00,0.0053
3919.00,0.0052
3918.00,0.0053
3917.00,0.0053
3916.00,0.0053
3915.00,0.0053
3914.00,0.0052
3913.00,0.0052
3912.00,0.0051
3911.00,0.0050
3910.00,0.0050
3909.00,0.0051
3908.00,0.0052
3907.00,0.0053
3906.00,0.0053
3905.00,0.0053
3904.00,0.0053
3903.00,0.0055
3902.00,0.0057
3901.00,0.0059
3900.00,0.0059
3899.00,0.0057
3898.00,0.0055
3897.00,0.0054
3896.00,0.0054
3895.00,0.0054
3894.00,0.0054
3893.00,0.0054
3892.00,0.0052
3891.00,0.0050
3890.00,0.0050
3889.00,0.0052
3888.00,0.0054
3887.00,0.0055
3886.00,0.0053
3885.00,0.0052
3884.00,0.0054
3883.00,0.0058
3882.00,0.0060
3881.00,0.0059
3880.00,0.0055
3879.00,0.0053
3878.00,0.0054
3877.00,0.0056
3876.00,0.0056
3875.00,0.0054
3874.00,0.0052
3873.00,0.0053
3872.00,0.0055
3871.00,0.0056
3870.00,0.0054
3869.00,0.0053
3868.00,0.0054
3867.00,0.0057
3866.00,0.0057
3865.00,0.0055
3864.00,0.0053
3863.00,0.0053
3862.00,0.0054
3861.00,0.0053
3860.00,0.0052
3859.00,0.0050
3858.00,0.0049
3857.00,0.0050
3856.00,0.0052
3855.00,0.0052
3854.00,0.0051
3853.00,0.0051
3852.00,0.0052
3851.00,0.0054
3850.00,0.0055
3849.00,0.0053
3848.00,0.0051
3847.00,0.0050
3846.00,0.0050
3845.00,0.0050
3844.00,0.0050
3843.00,0.0049
3842.00,0.0050
3841.00,0.0052
3840.00,0.0053
3839.00,0.0053
3838.00,0.0052
3837.00,0.0052
3836.00,0.0053
3835.00,0.0053
3834.00,0.0053
3833.00,0.0052
3832.00,0.0051
3831.00,0.0050
3830.00,0.0050
3829.00,0.0052
3828.00,0.0052
3827.00,0.0050
3826.00,0.0048
3825.00,0.0048
3824.00,0.0050
3823.00,0.0052
3822.00,0.0051
3821.00,0.0048
3820.00,0.0047
3819.00,0.0050
3818.00,0.0053
3817.00,0.0053
3816.00,0.0050
3815.00,0.0048
3814.00,0.0049
3813.00,0.0050
3812.00,0.0049
3811.00,0.0047
3810.00,0.0046
3809.00,0.0047
3808.00,0.0046
3807.00,0.0044
3806.00,0.0043
3805.00,0.0045
3804.00,0.0049
3803.00,0.0051
3802.00,0.0050
3801.00,0.0048
3800.00,0.0049
3799.00,0.0052
3798.00,0.0053
3797.00,0.0051
3796.00,0.0049
3795.00,0.0048
3794.00,0.0048
3793.00,0.0049
3792.00,0.0048
3791.00,0.0047
3790.00,0.0046
3789.00,0.0046
3788.00,0.0046
3787.00,0.0047
3786.00,0.0047
3785.00,0.0046
3784.00,0.0046
3783.00,0.0047
3782.00,0.0048
3781.00,0.0049
3780.00,0.0048
3779.00,0.0046
3778.00,0.0046
3777.00,0.0047
3776.00,0.0047
3775.00,0.0046
3774.00,0.0045
3773.00,0.0045
3772.00,0.0045
3771.00,0.0045
3770.00,0.0045
3769.00,0.0045
3768.00,0.0047
3767.00,0.0049
3766.00,0.0048
3765.00,0.0047
3764.00,0.0046
3763.00,0.0047
3762.00,0.0049
3761.00,0.0049
3760.00,0.0048
3759.00,0.0047
3758.00,0.0047
3757.00,0.0046
3756.00,0.0046
3755.00,0.0046
3754.00,0.0045
3753.00,0.0042
3752.00,0.0040
3751.00,0.0040
3750.00,0.0042
3749.00,0.0043
3748.00,0.0046
3747.00,0.0050
3746.00,0.0053
3745.00,0.0051
3744.00,0.0047
3743.00,0.0046
3742.00,0.0047
3741.00,0.0047
3740.00,0.0046
3739.00,0.0045
3738.00,0.0045
3737.00,0.0046
3736.00,0.0046
3735.00,0.0047
3734.00,0.0048
3733.00,0.0048
3732.00,0.0047
3731.00,0.0044
3730.00,0.0044
3729.00,0.0045
3728.00,0.0045
3727.00,0.0044
3726.00,0.0044
3725.00,0.0045
3724.00,0.0047
3723.00,0.0048
3722.00,0.0048
3721.00,0.0048
3720.00,0.0047
3719.00,0.0047
3718.00,0.0046
3717.00,0.0045
3716.00,0.0045
3715.00,0.0045
3714.00,0.0045
3713.00,0.0044
3712.00,0.0044
3711.00,0.0046
3710.00,0.0048
3709.00,0.0049
3708.00,0.0049
3707.00,0.0048
3706.00,0.0047
3705.00,0.0047
3704.00,0.0048
3703.00,0.0050
3702.00,0.0050
3701.00,0.0050
3700.00,0.0050
3699.00,0.0050
3698.00,0.0050
3697.00,0.0050
3696.00,0.0049
3695.00,0.0049
3694.00,0.0050
3693.00,0.0051
3692.00,0.0051
3691.00,0.0052
3690.00,0.0054
3689.00,0.0055
3688.00,0.0055
3687.00,0.0055
3686.00,0.0055
3685.00,0.0055
3684.00,0.0054
3683.00,0.0053
3682.00,0.0052
3681.00,0.0051
3680.00,0.0050
3679.00,0.0050
3678.00,0.0053
3677.00,0.0057
3676.00,0.0059
3675.00,0.0059
3674.00,0.0060
3673.00,0.0062
3672.00,0.0065
3671.00,0.0065
3670.00,0.0064
3669.00,0.0065
3668.00,0.0067
3667.00,0.0068
3666.00,0.0067
3665.00,0.0066
3664.00,0.0065
3663.00,0.0065
3662.00,0.0066
3661.00,0.0066
3660.00,0.0067
3659.00,0.0069
3658.00,0.0071
3657.00,0.0073
3656.00,0.0074
3655.00,0.0075
3654.00,0.0078
3653.00,0.0081
3652.00,0.0082
3651.00,0.0080
3650.00,0.0082
3649.00,0.0090
3648.00,0.0097
3647.00,0.0099
3646.00,0.0098
3645.00,0.0096
3644.00,0.0095
3643.00,0.0094
3642.00,0.0093
3641.00,0.0093
3640.00,0.0094
3639.00,0.0095
3638.00,0.0096
3637.00,0.0097
3636.00,0.0099
3635.00,0.0099
3634.00,0.0098
3633.00,0.0098
3632.00,0.0099
3631.00,0.0103
3630.00,0.0106
3629.00,0.0109
3628.00,0.0112
3627.00,0.0114
3626.00,0.0115
3625.00,0.0115
3624.00,0.0113
3623.00,0.0113
3622.00,0.0115
3621.00,0.0118
3620.00,0.0121
3619.00,0.0125
3618.00,0.0127
3617.00,0.0128
3616.00,0.0129
3615.00,0.0128
3614.00,0.0127
3613.00,0.0126
3612.00,0.0127
3611.00,0.0128
3610.00,0.0130
3609.00,0.0131
3608.00,0.0132
3607.00,0.0134
3606.00,0.0134
3605.00,0.0134
3604.00,0.0134
3603.00,0.0133
3602.00,0.0133
3601.00,0.0134
3600.00,0.0135
3599.00,0.0137
3598.00,0.0139
3597.00,0.0140
3596.00,0.0141
3595.00,0.0142
3594.00,0.0142
3593.00,0.0142
3592.00,0.0142
3591.00,0.0142
3590.00,0.0143
3589.00,0.0145
3588.00,0.0149
3587.00,0.0152
3586.00,0.0155
3585.00,0.0155
3584.00,0.0155
3583.00,0.0153
3582.00,0.0152
3581.00,0.0151
3580.00,0.0151
3579.00,0.0153
3578.00,0.0154
3577.00,0.0155
3576.00,0.0155
3575.00,0.0155
3574.00,0.0155
3573.00,0.0155
3572.00,0.0155
3571.00,0.0156
3570.00,0.0158
3569.00,0.0161
3568.00,0.0165
3567.00,0.0169
3566.00,0.0172
3565.00,0.0174
3564.00,0.0173
3563.00,0.0171
3562.00,0.0169
3561.00,0.0168
3560.00,0.0168
3559.00,0.0168
3558.00,0.0168
3557.00,0.0167
3556.00,0.0167
3555.00,0.0168
3554.00,0.0169
3553.00,0.0170
3552.00,0.0172
3551.00,0.0173
3550.00,0.0174
3549.00,0.0175
3548.00,0.0176
3547.00,0.0178
3546.00,0.0180
3545.00,0.0181
3544.00,0.0181
3543.00,0.0181
3542.00,0.0180
3541.00,0.0179
3540.00,0.0179
3539.00,0.0180
3538.00,0.0181
3537.00,0.0182
3536.00,0.0183
3535.00,0.0183
3534.00,0.0183
3533.00,0.0183
3532.00,0.0183
3531.00,0.0184
3530.00,0.0185
3529.00,0.0186
3528.00,0.0188
3527.00,0.0189
3526.00,0.0191
3525.00,0.0192
3524.00,0.0193
3523.00,0.0194
3522.00,0.0194
3521.00,0.0194
3520.00,0.0195
3519.00,0.0195
3518.00,0.0195
3517.00,0.0195
3516.00,0.0195
3515.00,0.0195
3514.00,0.0196
3513.00,0.0197
3512.00,0.0198
3511.00,0.0199
3510.00,0.0200
3509.00,0.0201
3508.00,0.0201
3507.00,0.0201
3506.00,0.0201
3505.00,0.0202
3504.00,0.0203
3503.00,0.0204
3502.00,0.0205
3501.00,0.0206
3500.00,0.0207
3499.00,0.0207
3498.00,0.0207
3497.00,0.0207
3496.00,0.0208
3495.00,0.0208
3494.00,0.0209
3493.00,0.0209
3492.00,0.0209
3491.00,0.0209
3490.00,0.0209
3489.00,0.0209
3488.00,0.0210
3487.00,0.0211
3486.00,0.0212
3485.00,0.0214
3484.00,0.0214
3483.00,0.0215
3482.00,0.0215
3481.00,0.0216
3480.00,0.0217
3479.00,0.0218
3478.00,0.0218
3477.00,0.0219
3476.00,0.0219
3475.00,0.0219
3474.00,0.0220
3473.00,0.0221
3472.00,0.0221
3471.00,0.0222
3470.00,0.0223
3469.00,0.0223
3468.00,0.0223
3467.00,0.0224
3466.00,0.0224
3465.00,0.0224
3464.00,0.0225
3463.00,0.0225
3462.00,0.0226
3461.00,0.0226
3460.00,0.0227
3459.00,0.0227
3458.00,0.0227
3457.00,0.0227
3456.00,0.0228
3455.00,0.0229
3454.00,0.0229
3453.00,0.0230
3452.00,0.0231
3451.00,0.0231
3450.00,0.0232
3449.00,0.0232
3448.00,0.0233
3447.00,0.0233
3446.00,0.0234
3445.00,0.0235
3444.00,0.0235
3443.00,0.0235
3442.00,0.0236
3441.00,0.0236
3440.00,0.0237
3439.00,0.0237
3438.00,0.0237
3437.00,0.0237
3436.00,0.0237
3435.00,0.0237
3434.00,0.0238
3433.00,0.0239
3432.00,0.0239
3431.00,0.0240
3430.00,0.0240
3429.00,0.0240
3428.00,0.0240
3427.00,0.0241
3426.00,0.0242
3425.00,0.0243
3424.00,0.0243
3423.00,0.0244
3422.00,0.0244
3421.00,0.0244
3420.00,0.0245
3419.00,0.0246
3418.00,0.0247
3417.00,0.0247
3416.00,0.0246
3415.00,0.0246
3414.00,0.0247
3413.00,0.0248
3412.00,0.0249
3411.00,0.0249
3410.00,0.0249
3409.00,0.0249
3408.00,0.0250
3407.00,0.0250
3406.00,0.0251
3405.00,0.0251
3404.00,0.0252
3403.00,0.0252
3402.00,0.0253
3401.00,0.0253
3400.00,0.0253
3399.00,0.0252
3398.00,0.0252
3397.00,0.0252
3396.00,0.0253
3395.00,0.0253
3394.00,0.0254
3393.00,0.0255
3392.00,0.0256
3391.00,0.0256
3390.00,0.0256
3389.00,0.0255
3388.00,0.0255
3387.00,0.0256
3386.00,0.0256
3385.00,0.0257
3384.00,0.0257
3383.00,0.0257
3382.00,0.0257
3381.00,0.0256
3380.00,0.0256
3379.00,0.0257
3378.00,0.0257
3377.00,0.0257
3376.00,0.0258
3375.00,0.0259
3374.00,0.0259
3373.00,0.0259
3372.00,0.0259
3371.00,0.0259
3370.00,0.0259
3369.00,0.0259
3368.00,0.0260
3367.00,0.0260
3366.00,0.0261
3365.00,0.0261
3364.00,0.0262
3363.00,0.0262
3362.00,0.0262
3361.00,0.0262
3360.00,0.0262
3359.00,0.0262
3358.00,0.0263
3357.00,0.0263
3356.00,0.0264
3355.00,0.0263
3354.00,0.0263
3353.00,0.0262
3352.00,0.0262
3351.00,0.0262
3350.00,0.0263
3349.00,0.0263
3348.00,0.0263
3347.00,0.0263
3346.00,0.0263
3345.00,0.0263
3344.00,0.0264
3343.00,0.0264
3342.00,0.0264
3341.00,0.0264
3340.00,0.0264
3339.00,0.0264
3338.00,0.0265
3337.00,0.0265
3336.00,0.0265
3335.00,0.0265
3334.00,0.0265
3333.00,0.0265
3332.00,0.0265
3331.00,0.0265
3330.00,0.0265
3329.00,0.0265
3328.00,0.0265
3327.00,0.0266
3326.00,0.0266
3325.00,0.0267
3324.00,0.0267
3323.00,0.0267
3322.00,0.0267
3321.00,0.0266
3320.00,0.0266
3319.00,0.0265
3318.00,0.0265
3317.00,0.0266
3316.00,0.0266
3315.00,0.0267
3314.00,0.0267
3313.00,0.0267
3312.00,0.0267
3311.00,0.0267
3310.00,0.0268
3309.00,0.0268
3308.00,0.0269
3307.00,0.0269
3306.00,0.0269
3305.00,0.0269
3304.00,0.0269
3303.00,0.0269
3302.00,0.0269
3301.00,0.0268
3300.00,0.0268
3299.00,0.0268
3298.00,0.0268
3297.00,0.0268
3296.00,0.0268
3295.00,0.0268
3294.00,0.0268
3293.00,0.0268
3292.00,0.0269
3291.00,0.0269
3290.00,0.0269
3289.00,0.0269
3288.00,0.0269
3287.00,0.0269
3286.00,0.0270
3285.00,0.0270
3284.00,0.0270
3283.00,0.0270
3282.00,0.0269
3281.00,0.0269
3280.00,0.0269
3279.00,0.0269
3278.00,0.0269
3277.00,0.0269
3276.00,0.0270
3275.00,0.0270
3274.00,0.0271
3273.00,0.0271
3272.00,0.0272
3271.00,0.0271
3270.00,0.0271
3269.00,0.0271
3268.00,0.0271
3267.00,0.0270
3266.00,0.0271
3265.00,0.0271
3264.00,0.0271
3263.00,0.0271
3262.00,0.0271
3261.00,0.0271
3260.00,0.0271
3259.00,0.0271
3258.00,0.0271
3257.00,0.0272
3256.00,0.0272
3255.00,0.0272
3254.00,0.0272
3253.00,0.0272
3252.00,0.0272
3251.00,0.0272
3250.00,0.0272
3249.00,0.0272
3248.00,0.0273
3247.00,0.0274
3246.00,0.0274
3245.00,0.0274
3244.00,0.0274
3243.00,0.0274
3242.00,0.0273
3241.00,0.0273
3240.00,0.0273
3239.00,0.0273
3238.00,0.0273
3237.00,0.0274
3236.00,0.0274
3235.00,0.0274
3234.00,0.0274
3233.00,0.0275
3232.00,0.0275
3231.00,0.0275
3230.00,0.0275
3229.00,0.0275
3228.00,0.0275
3227.00,0.0275
3226.00,0.0275
3225.00,0.0275
3224.00,0.0275
3223.00,0.0275
3222.00,0.0275
3221.00,0.0275
3220.00,0.0274
3219.00,0.0274
3218.00,0.0273
3217.00,0.0273
3216.00,0.0272
3215.00,0.0272
3214.00,0.0272
3213.00,0.0272
3212.00,0.0273
3211.00,0.0274
3210.00,0.0274
3209.00,0.0274
3208.00,0.0274
3207.00,0.0274
3206.00,0.0274
3205.00,0.0274
3204.00,0.0274
3203.00,0.0274
3202.00,0.0274
3201.00,0.0275
3200.00,0.0275
3199.00,0.0275
3198.00,0.0275
3197.00,0.0274
3196.00,0.0274
3195.00,0.0274
3194.00,0.0273
3193.00,0.0273
3192.00,0.0272
3191.00,0.0272
3190.00,0.0272
3189.00,0.0272
3188.00,0.0272
3187.00,0.0272
3186.00,0.0273
3185.00,0.0273
3184.00,0.0273
3183.00,0.0273
3182.00,0.0272
3181.00,0.0272
3180.00,0.0272
3179.00,0.0271
3178.00,0.0271
3177.00,0.0271
3176.00,0.0271
3175.00,0.0271
3174.00,0.0271
3173.00,0.0271
3172.00,0.0271
3171.00,0.0270
3170.00,0.0270
3169.00,0.0270
3168.00,0.0269
3167.00,0.0269
3166.00,0.0269
3165.00,0.0269
3164.00,0.0269
3163.00,0.0268
3162.00,0.0268
3161.00,0.0268
3160.00,0.0269
3159.00,0.0269
3158.00,0.0269
3157.00,0.0268
3156.00,0.0267
3155.00,0.0267
3154.00,0.0266
3153.00,0.0266
3152.00,0.0266
3151.00,0.0266
3150.00,0.0266
3149.00,0.0266
3148.00,0.0266
3147.00,0.0266
3146.00,0.0266
3145.00,0.0266
3144.00,0.0266
3143.00,0.0266
3142.00,0.0266
3141.00,0.0266
3140.00,0.0265
3139.00,0.0265
3138.00,0.0264
3137.00,0.0264
3136.00,0.0264
3135.00,0.0263
3134.00,0.0263
3133.00,0.0263
3132.00,0.0263
3131.00,0.0263
3130.00,0.0263
3129.00,0.0263
3128.00,0.0263
3127.00,0.0263
3126.00,0.0263
3125.00,0.0263
3124.00,0.0262
3123.00,0.0262
3122.00,0.0262
3121.00,0.0262
3120.00,0.0262
3119.00,0.0261
3118.00,0.0261
3117.00,0.0261
3116.00,0.0261
3115.00,0.0261
3114.00,0.0262
3113.00,0.0262
3112.00,0.0261
3111.00,0.0261
3110.00,0.0260
3109.00,0.0259
3108.00,0.0259
3107.00,0.0258
3106.00,0.0258
3105.00,0.0259
3104.00,0.0259
3103.00,0.0259
3102.00,0.0259
3101.00,0.0259
3100.00,0.0259
3099.00,0.0259
3098.00,0.0259
3097.00,0.0259
3096.00,0.0258
3095.00,0.0258
3094.00,0.0257
3093.00,0.0257
3092.00,0.0256
3091.00,0.0256
3090.00,0.0256
3089.00,0.0255
3088.00,0.0255
3087.00,0.0256
3086.00,0.0256
3085.00,0.0256
3084.00,0.0255
3083.00,0.0255
3082.00,0.0254
3081.00,0.0254
3080.00,0.0254
3079.00,0.0254
3078.00,0.0253
3077.00,0.0253
3076.00,0.0253
3075.00,0.0252
3074.00,0.0252
3073.00,0.0252
3072.00,0.0253
3071.00,0.0253
3070.00,0.0252
3069.00,0.0252
3068.00,0.0252
3067.00,0.0251
3066.00,0.0251
3065.00,0.0251
3064.00,0.0251
3063.00,0.0251
3062.00,0.0250
3061.00,0.0250
3060.00,0.0250
3059.00,0.0249
3058.00,0.0249
3057.00,0.0249
3056.00,0.0249
3055.00,0.0249
3054.00,0.0249
3053.00,0.0248
3052.00,0.0248
3051.00,0.0247
3050.00,0.0246
3049.00,0.0246
3048.00,0.0245
3047.00,0.0245
3046.00,0.0245
3045.00,0.0245
3044.00,0.0245
3043.00,0.0245
3042.00,0.0244
3041.00,0.0244
3040.00,0.0243
3039.00,0.0243
3038.00,0.0243
3037.00,0.0243
3036.00,0.0243
3035.00,0.0243
3034.00,0.0242
3033.00,0.0242
3032.00,0.0242
3031.00,0.0241
3030.00,0.0241
3029.00,0.0240
3028.00,0.0240
3027.00,0.0239
3026.00,0.0239
3025.00,0.0238
3024.00,0.0238
3023.00,0.0238
3022.00,0.0238
3021.00,0.0237
3020.00,0.0237
3019.00,0.0236
3018.00,0.0236
3017.00,0.0235
3016.00,0.0235
3015.00,0.0235
3014.00,0.0235
3013.00,0.0234
3012.00,0.0234
3011.00,0.0234
3010.00,0.0233
3009.00,0.0233
3008.00,0.0232
3007.00,0.0232
3006.00,0.0231
3005.00,0.0230
3004.00,0.0230
3003.00,0.0229
3002.00,0.0229
3001.00,0.0228
3000.00,0.0228
2999.00,0.0227
2998.00,0.0226
2997.00,0.0226
2996.00,0.0226
2995.00,0.0226
2994.00,0.0225
2993.00,0.0225
2992.00,0.0224
2991.00,0.0224
2990.00,0.0223
2989.00,0.0223
2988.00,0.0222
2987.00,0.0222
2986.00,0.0221
2985.00,0.0220
2984.00,0.0219
2983.00,0.0218
2982.00,0.0217
2981.00,0.0217
2980.00,0.0217
2979.00,0.0217
2978.00,0.0218
2977.00,0.0218
2976.00,0.0218
2975.00,0.0217
2974.00,0.0217
2973.00,0.0216
2972.00,0.0215
2971.00,0.0214
2970.00,0.0214
2969.00,0.0213
2968.00,0.0213
2967.00,0.0213
2966.00,0.0213
2965.00,0.0212
2964.00,0.0212
2963.00,0.0211
2962.00,0.0211
2961.00,0.0211
2960.00,0.0210
2959.00,0.0210
2958.00,0.0210
2957.00,0.0210
2956.00,0.0210
2955.00,0.0210
2954.00,0.0210
2953.00,0.0211
2952.00,0.0211
2951.00,0.0211
2950.00,0.0211
2949.00,0.0210
2948.00,0.0210
2947.00,0.0211
2946.00,0.0211
2945.00,0.0211
2944.00,0.0211
2943.00,0.0211
2942.00,0.0210
2941.00,0.0210
2940.00,0.0209
2939.00,0.0208
2938.00,0.0207
2937.00,0.0206
2936.00,0.0205
2935.00,0.0204
2934.00,0.0203
2933.00,0.0202
2932.00,0.0201
2931.00,0.0199
2930.00,0.0198
2929.00,0.0197
2928.00,0.0196
2927.00,0.0195
2926.00,0.0193
2925.00,0.0193
2924.00,0.0192
2923.00,0.0192
2922.00,0.0192
2921.00,0.0192
2920.00,0.0191
2919.00,0.0190
2918.00,0.0190
2917.00,0.0189
2916.00,0.0190
2915.00,0.0191
2914.00,0.0193
2913.00,0.0195
2912.00,0.0196
2911.00,0.0197
2910.00,0.0197
2909.00,0.0198
2908.00,0.0198
2907.00,0.0199
2906.00,0.0199
2905.00,0.0199
2904.00,0.0199
2903.00,0.0199
2902.00,0.0199
2901.00,0.0199
2900.00,0.0199
2899.00,0.0199
2898.00,0.0198
2897.00,0.0198
2896.00,0.0197
2895.00,0.0197
2894.00,0.0198
2893.00,0.0198
2892.00,0.0198
2891.00,0.0198
2890.00,0.0197
2889.00,0.0197
2888.00,0.0197
2887.00,0.0197
2886.00,0.0198
2885.00,0.0198
2884.00,0.0198
2883.00,0.0198
2882.00,0.0198
2881.00,0.0198
2880.00,0.0198
2879.00,0.0197
2878.00,0.0197
2877.00,0.0196
2876.00,0.0195
2875.00,0.0195
2874.00,0.0194
2873.00,0.0193
2872.00,0.0193
2871.00,0.0193
2870.00,0.0192
2869.00,0.0192
2868.00,0.0192
2867.00,0.0191
2866.00,0.0191
2865.00,0.0190
2864.00,0.0190
2863.00,0.0190
2862.00,0.0189
2861.00,0.0189
2860.00,0.0188
2859.00,0.0187
2858.00,0.0187
2857.00,0.0186
2856.00,0.0185
2855.00,0.0184
2854.00,0.0184
2853.00,0.0183
2852.00,0.0183
2851.00,0.0183
2850.00,0.0183
2849.00,0.0183
2848.00,0.0183
2847.00,0.0184
2846.00,0.0184
2845.00,0.0185
2844.00,0.0186
2843.00,0.0187
2842.00,0.0187
2841.00,0.0188
2840.00,0.0188
2839.00,0.0189
2838.00,0.0189
2837.00,0.0189
2836.00,0.0189
2835.00,0.0188
2834.00,0.0187
2833.00,0.0187
2832.00,0.0187
2831.00,0.0187
2830.00,0.0187
2829.00,0.0187
2828.00,0.0187
2827.00,0.0187
2826.00,0.0187
2825.00,0.0187
2824.00,0.0186
2823.00,0.0186
2822.00,0.0185
2821.00,0.0185
2820.00,0.0185
2819.00,0.0185
2818.00,0.0184
2817.00,0.0184
2816.00,0.0184
2815.00,0.0184
2814.00,0.0183
2813.00,0.0183
2812.00,0.0183
2811.00,0.0183
2810.00,0.0183
2809.00,0.0183
2808.00,0.0182
2807.00,0.0182
2806.00,0.0181
2805.00,0.0181
2804.00,0.0181
2803.00,0.0181
2802.00,0.0181
2801.00,0.0180
2800.00,0.0180
2799.00,0.0180
2798.00,0.0180
2797.00,0.0180
2796.00,0.0179
2795.00,0.0179
2794.00,0.0179
2793.00,0.0178
2792.00,0.0178
2791.00,0.0178
2790.00,0.0178
2789.00,0.0178
2788.00,0.0178
2787.00,0.0177
2786.00,0.0177
2785.00,0.0177
2784.00,0.0177
2783.00,0.0176
2782.00,0.0176
2781.00,0.0176
2780.00,0.0175
2779.00,0.0174
2778.00,0.0174
2777.00,0.0175
2776.00,0.0175
2775.00,0.0175
2774.00,0.0175
2773.00,0.0175
2772.00,0.0174
2771.00,0.0174
2770.00,0.0173
2769.00,0.0173
2768.00,0.0173
2767.00,0.0172
2766.00,0.0172
2765.00,0.0172
2764.00,0.0172
2763.00,0.0172
2762.00,0.0172
2761.00,0.0172
2760.00,0.0172
2759.00,0.0172
2758.00,0.0171
2757.00,0.0171
2756.00,0.0171
2755.00,0.0171
2754.00,0.0171
2753.00,0.0170
2752.00,0.0170
2751.00,0.0170
2750.00,0.0170
2749.00,0.0170
2748.00,0.0170
2747.00,0.0170
2746.00,0.0170
2745.00,0.0169
2744.00,0.0168
2743.00,0.0168
2742.00,0.0168
2741.00,0.0168
2740.00,0.0168
2739.00,0.0168
2738.00,0.0168
2737.00,0.0167
2736.00,0.0166
2735.00,0.0166
2734.00,0.0166
2733.00,0.0166
2732.00,0.0166
2731.00,0.0166
2730.00,0.0166
2729.00,0.0166
2728.00,0.0165
2727.00,0.0165
2726.00,0.0165
2725.00,0.0165
2724.00,0.0165
2723.00,0.0165
2722.00,0.0165
2721.00,0.0164
2720.00,0.0164
2719.00,0.0164
2718.00,0.0163
2717.00,0.0163
2716.00,0.0163
2715.00,0.0163
2714.00,0.0163
2713.00,0.0163
2712.00,0.0163
2711.00,0.0163
2710.00,0.0163
2709.00,0.0163
2708.00,0.0162
2707.00,0.0162
2706.00,0.0162
2705.00,0.0161
2704.00,0.0161
2703.00,0.0161
2702.00,0.0161
2701.00,0.0161
2700.00,0.0160
2699.00,0.0160
2698.00,0.0160
2697.00,0.0160
2696.00,0.0160
2695.00,0.0160
2694.00,0.0159
2693.00,0.0159
2692.00,0.0159
2691.00,0.0159
2690.00,0.0159
2689.00,0.0159
2688.00,0.0159
2687.00,0.0159
2686.00,0.0159
2685.00,0.0158
2684.00,0.0158
2683.00,0.0157
2682.00,0.0157
2681.00,0.0157
2680.00,0.0157
2679.00,0.0157
2678.00,0.0157
2677.00,0.0157
2676.00,0.0157
2675.00,0.0157
2674.00,0.0157
2673.00,0.0156
2672.00,0.0156
2671.00,0.0155
2670.00,0.0155
2669.00,0.0155
2668.00,0.0155
2667.00,0.0155
2666.00,0.0155
2665.00,0.0155
2664.00,0.0155
2663.00,0.0155
2662.00,0.0155
2661.00,0.0156
2660.00,0.0156
2659.00,0.0156
2658.00,0.0156
2657.00,0.0155
2656.00,0.0155
2655.00,0.0155
2654.00,0.0155
2653.00,0.0155
2652.00,0.0155
2651.00,0.0155
2650.00,0.0156
2649.00,0.0156
2648.00,0.0156
2647.00,0.0155
2646.00,0.0155
2645.00,0.0155
2644.00,0.0155
2643.00,0.0156
2642.00,0.0156
2641.00,0.0156
2640.00,0.0156
2639.00,0.0155
2638.00,0.0155
2637.00,0.0154
2636.00,0.0155
2635.00,0.0155
2634.00,0.0155
2633.00,0.0155
2632.00,0.0154
2631.00,0.0154
2630.00,0.0153
2629.00,0.0153
2628.00,0.0154
2627.00,0.0154
2626.00,0.0154
2625.00,0.0154
2624.00,0.0154
2623.00,0.0153
2622.00,0.0153
2621.00,0.0152
2620.00,0.0152
2619.00,0.0152
2618.00,0.0153
2617.00,0.0153
2616.00,0.0153
2615.00,0.0154
2614.00,0.0154
2613.00,0.0154
2612.00,0.0153
2611.00,0.0152
2610.00,0.0152
2609.00,0.0152
2608.00,0.0152
2607.00,0.0152
2606.00,0.0152
2605.00,0.0152
2604.00,0.0152
2603.00,0.0151
2602.00,0.0151
2601.00,0.0151
2600.00,0.0151
2599.00,0.0151
2598.00,0.0151
2597.00,0.0151
2596.00,0.0151
2595.00,0.0151
2594.00,0.0151
2593.00,0.0151
2592.00,0.0152
2591.00,0.0152
2590.00,0.0152
2589.00,0.0151
2588.00,0.0151
2587.00,0.0150
2586.00,0.0150
2585.00,0.0150
2584.00,0.0150
2583.00,0.0150
2582.00,0.0150
2581.00,0.0150
2580.00,0.0149
2579.00,0.0149
2578.00,0.0149
2577.00,0.0150
2576.00,0.0150
2575.00,0.0149
2574.00,0.0149
2573.00,0.0149
2572.00,0.0149
2571.00,0.0149
2570.00,0.0149
2569.00,0.0148
2568.00,0.0149
2567.00,0.0149
2566.00,0.0149
2565.00,0.0150
2564.00,0.0149
2563.00,0.0149
2562.00,0.0149
2561.00,0.0148
2560.00,0.0148
2559.00,0.0147
2558.00,0.0147
2557.00,0.0147
2556.00,0.0147
2555.00,0.0147
2554.00,0.0148
2553.00,0.0148
2552.00,0.0148
2551.00,0.0148
2550.00,0.0148
2549.00,0.0147
2548.00,0.0147
2547.00,0.0146
2546.00,0.0146
2545.00,0.0145
2544.00,0.0145
2543.00,0.0145
2542.00,0.0146
2541.00,0.0146
2540.00,0.0147
2539.00,0.0147
2538.00,0.0147
2537.00,0.0147
2536.00,0.0146
2535.00,0.0146
2534.00,0.0146
2533.00,0.0146
2532.00,0.0146
2531.00,0.0146
2530.00,0.0146
2529.00,0.0146
2528.00,0.0146
2527.00,0.0146
2526.00,0.0145
2525.00,0.0145
2524.00,0.0145
2523.00,0.0145
2522.00,0.0145
2521.00,0.0145
2520.00,0.0145
2519.00,0.0145
2518.00,0.0144
2517.00,0.0143
2516.00,0.0142
2515.00,0.0142
2514.00,0.0142
2513.00,0.0143
2512.00,0.0144
2511.00,0.0144
2510.00,0.0144
2509.00,0.0143
2508.00,0.0143
2507.00,0.0142
2506.00,0.0141
2505.00,0.0141
2504.00,0.0141
2503.00,0.0141
2502.00,0.0142
2501.00,0.0143
2500.00,0.0143
2499.00,0.0142
2498.00,0.0142
2497.00,0.0141
2496.00,0.0141
2495.00,0.0141
2494.00,0.0141
2493.00,0.0141
2492.00,0.0140
2491.00,0.0140
2490.00,0.0140
2489.00,0.0140
2488.00,0.0140
2487.00,0.0140
2486.00,0.0140
2485.00,0.0139
2484.00,0.0139
2483.00,0.0139
2482.00,0.0139
2481.00,0.0140
2480.00,0.0140
2479.00,0.0139
2478.00,0.0139
2477.00,0.0139
2476.00,0.0138
2475.00,0.0138
2474.00,0.0138
2473.00,0.0138
2472.00,0.0138
2471.00,0.0138
2470.00,0.0137
2469.00,0.0137
2468.00,0.0137
2467.00,0.0137
2466.00,0.0137
2465.00,0.0137
2464.00,0.0137
2463.00,0.0136
2462.00,0.0136
2461.00,0.0136
2460.00,0.0136
2459.00,0.0136
2458.00,0.0136
2457.00,0.0137
2456.00,0.0136
2455.00,0.0136
2454.00,0.0135
2453.00,0.0135
2452.00,0.0136
2451.00,0.0136
2450.00,0.0136
2449.00,0.0135
2448.00,0.0135
2447.00,0.0134
2446.00,0.0134
2445.00,0.0133
2444.00,0.0133
2443.00,0.0133
2442.00,0.0133
2441.00,0.0133
2440.00,0.0133
2439.00,0.0132
2438.00,0.0132
2437.00,0.0132
2436.00,0.0132
2435.00,0.0132
2434.00,0.0131
2433.00,0.0131
2432.00,0.0131
2431.00,0.0131
2430.00,0.0131
2429.00,0.0131
2428.00,0.0131
2427.00,0.0131
2426.00,0.0131
2425.00,0.0131
2424.00,0.0131
2423.00,0.0131
2422.00,0.0130
2421.00,0.0130
2420.00,0.0130
2419.00,0.0130
2418.00,0.0130
2417.00,0.0130
2416.00,0.0129
2415.00,0.0129
2414.00,0.0129
2413.00,0.0129
2412.00,0.0129
2411.00,0.0128
2410.00,0.0127
2409.00,0.0127
2408.00,0.0126
2407.00,0.0126
2406.00,0.0127
2405.00,0.0127
2404.00,0.0127
2403.00,0.0127
2402.00,0.0127
2401.00,0.0126
2400.00,0.0126
2399.00,0.0125
2398.00,0.0125
2397.00,0.0125
2396.00,0.0125
2395.00,0.0125
2394.00,0.0125
2393.00,0.0125
2392.00,0.0125
2391.00,0.0124
2390.00,0.0124
2389.00,0.0123
2388.00,0.0123
2387.00,0.0123
2386.00,0.0122
2385.00,0.0121
2384.00,0.0120
2383.00,0.0118
2382.00,0.0116
2381.00,0.0114
2380.00,0.0112
2379.00,0.0111
2378.00,0.0109
2377.00,0.0108
2376.00,0.0108
2375.00,0.0109
2374.00,0.0110
2373.00,0.0111
2372.00,0.0113
2371.00,0.0114
2370.00,0.0113
2369.00,0.0113
2368.00,0.0113
2367.00,0.0112
2366.00,0.0111
2365.00,0.0109
2364.00,0.0107
2363.00,0.0107
2362.00,0.0108
2361.00,0.0110
2360.00,0.0113
2359.00,0.0114
2358.00,0.0115
2357.00,0.0115
2356.00,0.0116
2355.00,0.0117
2354.00,0.0117
2353.00,0.0116
2352.00,0.0117
2351.00,0.0116
2350.00,0.0114
2349.00,0.0109
2348.00,0.0102
2347.00,0.0096
2346.00,0.0094
2345.00,0.0097
2344.00,0.0102
2343.00,0.0105
2342.00,0.0108
2341.00,0.0110
2340.00,0.0111
2339.00,0.0112
2338.00,0.0113
2337.00,0.0113
2336.00,0.0113
2335.00,0.0113
2334.00,0.0113
2333.00,0.0113
2332.00,0.0113
2331.00,0.0114
2330.00,0.0117
2329.00,0.0120
2328.00,0.0122
2327.00,0.0124
2326.00,0.0123
2325.00,0.0122
2324.00,0.0121
2323.00,0.0120
2322.00,0.0119
2321.00,0.0118
2320.00,0.0118
2319.00,0.0118
2318.00,0.0119
2317.00,0.0120
2316.00,0.0119
2315.00,0.0118
2314.00,0.0116
2313.00,0.0115
2312.00,0.0115
2311.00,0.0115
2310.00,0.0114
2309.00,0.0114
2308.00,0.0113
2307.00,0.0113
2306.00,0.0113
2305.00,0.0114
2304.00,0.0114
2303.00,0.0115
2302.00,0.0115
2301.00,0.0115
2300.00,0.0115
2299.00,0.0114
2298.00,0.0113
2297.00,0.0112
2296.00,0.0111
2295.00,0.0111
2294.00,0.0111
2293.00,0.0112
2292.00,0.0112
2291.00,0.0113
2290.00,0.0113
2289.00,0.0114
2288.00,0.0114
2287.00,0.0114
2286.00,0.0114
2285.00,0.0114
2284.00,0.0114
2283.00,0.0113
2282.00,0.0112
2281.00,0.0111
2280.00,0.0110
2279.00,0.0110
2278.00,0.0110
2277.00,0.0110
2276.00,0.0110
2275.00,0.0111
2274.00,0.0112
2273.00,0.0112
2272.00,0.0111
2271.00,0.0109
2270.00,0.0108
2269.00,0.0107
2268.00,0.0107
2267.00,0.0108
2266.00,0.0108
2265.00,0.0108
2264.00,0.0108
2263.00,0.0107
2262.00,0.0107
2261.00,0.0107
2260.00,0.0108
2259.00,0.0109
2258.00,0.0110
2257.00,0.0111
2256.00,0.0110
2255.00,0.0109
2254.00,0.0107
2253.00,0.0106
2252.00,0.0106
2251.00,0.0106
2250.00,0.0107
2249.00,0.0107
2248.00,0.0107
2247.00,0.0107
2246.00,0.0106
2245.00,0.0105
2244.00,0.0105
2243.00,0.0105
2242.00,0.0106
2241.00,0.0106
2240.00,0.0106
2239.00,0.0106
2238.00,0.0105
2237.00,0.0104
2236.00,0.0104
2235.00,0.0104
2234.00,0.0104
2233.00,0.0105
2232.00,0.0106
2231.00,0.0107
2230.00,0.0108
2229.00,0.0108
2228.00,0.0108
2227.00,0.0108
2226.00,0.0108
2225.00,0.0107
2224.00,0.0106
2223.00,0.0105
2222.00,0.0105
2221.00,0.0105
2220.00,0.0105
2219.00,0.0105
2218.00,0.0105
2217.00,0.0106
2216.00,0.0106
2215.00,0.0106
2214.00,0.0107
2213.00,0.0107
2212.00,0.0106
2211.00,0.0105
2210.00,0.0103
2209.00,0.0103
2208.00,0.0102
2207.00,0.0102
2206.00,0.0102
2205.00,0.0102
2204.00,0.0103
2203.00,0.0104
2202.00,0.0104
2201.00,0.0105
2200.00,0.0105
2199.00,0.0105
2198.00,0.0105
2197.00,0.0105
2196.00,0.0106
2195.00,0.0106
2194.00,0.0105
2193.00,0.0103
2192.00,0.0102
2191.00,0.0102
2190.00,0.0103
2189.00,0.0104
2188.00,0.0104
2187.00,0.0104
2186.00,0.0104
2185.00,0.0103
2184.00,0.0103
2183.00,0.0103
2182.00,0.0102
2181.00,0.0102
2180.00,0.0102
2179.00,0.0102
2178.00,0.0102
2177.00,0.0101
2176.00,0.0100
2175.00,0.0100
2174.00,0.0101
2173.00,0.0103
2172.00,0.0104
2171.00,0.0104
2170.00,0.0102
2169.00,0.0101
2168.00,0.0100
2167.00,0.0101
2166.00,0.0103
2165.00,0.0104
2164.00,0.0105
2163.00,0.0106
2162.00,0.0105
2161.00,0.0103
2160.00,0.0099
2159.00,0.0094
2158.00,0.0091
2157.00,0.0091
2156.00,0.0092
2155.00,0.0094
2154.00,0.0095
2153.00,0.0096
2152.00,0.0096
2151.00,0.0095
2150.00,0.0095
2149.00,0.0095
2148.00,0.0095
2147.00,0.0093
2146.00,0.0092
2145.00,0.0092
2144.00,0.0093
2143.00,0.0093
2142.00,0.0094
2141.00,0.0093
2140.00,0.0093
2139.00,0.0092
2138.00,0.0091
2137.00,0.0091
2136.00,0.0090
2135.00,0.0089
2134.00,0.0089
2133.00,0.0089
2132.00,0.0089
2131.00,0.0089
2130.00,0.0089
2129.00,0.0088
2128.00,0.0088
2127.00,0.0087
2126.00,0.0087
2125.00,0.0087
2124.00,0.0088
2123.00,0.0089
2122.00,0.0090
2121.00,0.0091
2120.00,0.0092
2119.00,0.0093
2118.00,0.0093
2117.00,0.0093
2116.00,0.0093
2115.00,0.0092
2114.00,0.0091
2113.00,0.0090
2112.00,0.0089
2111.00,0.0089
2110.00,0.0090
2109.00,0.0090
2108.00,0.0090
2107.00,0.0090
2106.00,0.0089
2105.00,0.0089
2104.00,0.0089
2103.00,0.0089
2102.00,0.0089
2101.00,0.0088
2100.00,0.0088
2099.00,0.0087
2098.00,0.0087
2097.00,0.0087
2096.00,0.0086
2095.00,0.0085
2094.00,0.0084
2093.00,0.0085
2092.00,0.0086
2091.00,0.0087
2090.00,0.0088
2089.00,0.0089
2088.00,0.0089
2087.00,0.0089
2086.00,0.0088
2085.00,0.0088
2084.00,0.0088
2083.00,0.0088
2082.00,0.0088
2081.00,0.0088
2080.00,0.0087
2079.00,0.0087
2078.00,0.0087
2077.00,0.0087
2076.00,0.0087
2075.00,0.0087
2074.00,0.0086
2073.00,0.0086
2072.00,0.0085
2071.00,0.0086
2070.00,0.0086
2069.00,0.0087
2068.00,0.0088
2067.00,0.0088
2066.00,0.0089
2065.00,0.0089
2064.00,0.0088
2063.00,0.0088
2062.00,0.0087
2061.00,0.0087
2060.00,0.0087
2059.00,0.0087
2058.00,0.0087
2057.00,0.0088
2056.00,0.0088
2055.00,0.0088
2054.00,0.0088
2053.00,0.0088
2052.00,0.0089
2051.00,0.0089
2050.00,0.0089
2049.00,0.0088
2048.00,0.0088
2047.00,0.0088
2046.00,0.0089
2045.00,0.0090
2044.00,0.0090
2043.00,0.0089
2042.00,0.0088
2041.00,0.0087
2040.00,0.0087
2039.00,0.0087
2038.00,0.0087
2037.00,0.0087
2036.00,0.0087
2035.00,0.0087
2034.00,0.0087
2033.00,0.0088
2032.00,0.0087
2031.00,0.0086
2030.00,0.0084
2029.00,0.0083
2028.00,0.0083
2027.00,0.0082
2026.00,0.0082
2025.00,0.0081
2024.00,0.0080
2023.00,0.0080
2022.00,0.0080
2021.00,0.0081
2020.00,0.0083
2019.00,0.0083
2018.00,0.0081
2017.00,0.0080
2016.00,0.0080
2015.00,0.0081
2014.00,0.0082
2013.00,0.0082
2012.00,0.0080
2011.00,0.0078
2010.00,0.0076
2009.00,0.0075
2008.00,0.0074
2007.00,0.0073
2006.00,0.0074
2005.00,0.0077
2004.00,0.0079
2003.00,0.0080
2002.00,0.0081
2001.00,0.0080
2000.00,0.0080
1999.00,0.0080
1998.00,0.0080
1997.00,0.0081
1996.00,0.0081
1995.00,0.0081
1994.00,0.0082
1993.00,0.0083
1992.00,0.0082
1991.00,0.0080
1990.00,0.0079
1989.00,0.0078
1988.00,0.0077
1987.00,0.0077
1986.00,0.0077
1985.00,0.0077
1984.00,0.0078
1983.00,0.0079
1982.00,0.0081
1981.00,0.0083
1980.00,0.0084
1979.00,0.0082
1978.00,0.0081
1977.00,0.0081
1976.00,0.0081
1975.00,0.0080
1974.00,0.0079
1973.00,0.0077
1972.00,0.0076
1971.00,0.0075
1970.00,0.0076
1969.00,0.0076
1968.00,0.0077
1967.00,0.0076
1966.00,0.0074
1965.00,0.0072
1964.00,0.0072
1963.00,0.0071
1962.00,0.0072
1961.00,0.0072
1960.00,0.0071
1959.00,0.0070
1958.00,0.0068
1957.00,0.0067
1956.00,0.0065
1955.00,0.0064
1954.00,0.0064
1953.00,0.0065
1952.00,0.0066
1951.00,0.0066
1950.00,0.0066
1949.00,0.0065
1948.00,0.0065
1947.00,0.0065
1946.00,0.0066
1945.00,0.0068
1944.00,0.0068
1943.00,0.0066
1942.00,0.0064
1941.00,0.0064
1940.00,0.0064
1939.00,0.0064
1938.00,0.0064
1937.00,0.0064
1936.00,0.0064
1935.00,0.0064
1934.00,0.0064
1933.00,0.0064
1932.00,0.0063
1931.00,0.0063
1930.00,0.0063
1929.00,0.0063
1928.00,0.0063
1927.00,0.0063
1926.00,0.0064
1925.00,0.0066
1924.00,0.0067
1923.00,0.0065
1922.00,0.0064
1921.00,0.0063
1920.00,0.0062
1919.00,0.0061
1918.00,0.0058
1917.00,0.0057
1916.00,0.0056
1915.00,0.0057
1914.00,0.0058
1913.00,0.0058
1912.00,0.0059
1911.00,0.0058
1910.00,0.0057
1909.00,0.0056
1908.00,0.0056
1907.00,0.0055
1906.00,0.0055
1905.00,0.0056
1904.00,0.0056
1903.00,0.0056
1902.00,0.0055
1901.00,0.0055
1900.00,0.0054
1899.00,0.0054
1898.00,0.0055
1897.00,0.0055
1896.00,0.0055
1895.00,0.0055
1894.00,0.0054
1893.00,0.0054
1892.00,0.0054
1891.00,0.0054
1890.00,0.0052
1889.00,0.0051
1888.00,0.0050
1887.00,0.0050
1886.00,0.0051
1885.00,0.0052
1884.00,0.0052
1883.00,0.0051
1882.00,0.0051
1881.00,0.0050
1880.00,0.0050
1879.00,0.0050
1878.00,0.0049
1877.00,0.0049
1876.00,0.0049
1875.00,0.0049
1874.00,0.0049
1873.00,0.0050
1872.00,0.0052
1871.00,0.0053
1870.00,0.0051
1869.00,0.0048
1868.00,0.0045
1867.00,0.0044
1866.00,0.0045
1865.00,0.0046
1864.00,0.0046
1863.00,0.0045
1862.00,0.0045
1861.00,0.0045
1860.00,0.0045
1859.00,0.0045
1858.00,0.0045
1857.00,0.0045
1856.00,0.0045
1855.00,0.0045
1854.00,0.0045
1853.00,0.0044
1852.00,0.0043
1851.00,0.0043
1850.00,0.0043
1849.00,0.0043
1848.00,0.0044
1847.00,0.0045
1846.00,0.0045
1845.00,0.0042
1844.00,0.0039
1843.00,0.0037
1842.00,0.0038
1841.00,0.0040
1840.00,0.0042
1839.00,0.0042
1838.00,0.0041
1837.00,0.0041
1836.00,0.0041
1835.00,0.0040
1834.00,0.0041
1833.00,0.0043
1832.00,0.0045
1831.00,0.0045
1830.00,0.0042
1829.00,0.0040
1828.00,0.0041
1827.00,0.0042
1826.00,0.0042
1825.00,0.0040
1824.00,0.0039
1823.00,0.0038
1822.00,0.0039
1821.00,0.0039
1820.00,0.0039
1819.00,0.0038
1818.00,0.0038
1817.00,0.0038
1816.00,0.0038
1815.00,0.0039
1814.00,0.0040
1813.00,0.0040
1812.00,0.0040
1811.00,0.0039
1810.00,0.0038
1809.00,0.0038
1808.00,0.0039
1807.00,0.0039
1806.00,0.0040
1805.00,0.0042
1804.00,0.0044
1803.00,0.0045
1802.00,0.0045
1801.00,0.0044
1800.00,0.0044
1799.00,0.0043
1798.00,0.0044
1797.00,0.0045
1796.00,0.0047
1795.00,0.0048
1794.00,0.0048
1793.00,0.0047
1792.00,0.0046
1791.00,0.0045
1790.00,0.0046
1789.00,0.0048
1788.00,0.0050
1787.00,0.0051
1786.00,0.0051
1785.00,0.0052
1784.00,0.0053
1783.00,0.0055
1782.00,0.0057
1781.00,0.0058
1780.00,0.0058
1779.00,0.0059
1778.00,0.0060
1777.00,0.0062
1776.00,0.0065
1775.00,0.0069
1774.00,0.0071
1773.00,0.0070
1772.00,0.0068
1771.00,0.0068
1770.00,0.0069
1769.00,0.0071
1768.00,0.0072
1767.00,0.0074
1766.00,0.0076
1765.00,0.0080
1764.00,0.0083
1763.00,0.0084
1762.00,0.0084
1761.00,0.0084
1760.00,0.0086
1759.00,0.0089
1758.00,0.0091
1757.00,0.0092
1756.00,0.0092
1755.00,0.0094
1754.00,0.0097
1753.00,0.0100
1752.00,0.0102
1751.00,0.0104
1750.00,0.0106
1749.00,0.0108
1748.00,0.0111
1747.00,0.0114
1746.00,0.0117
1745.00,0.0120
1744.00,0.0123
1743.00,0.0126
1742.00,0.0129
1741.00,0.0131
1740.00,0.0133
1739.00,0.0134
1738.00,0.0137
1737.00,0.0142
1736.00,0.0146
1735.00,0.0147
1734.00,0.0147
1733.00,0.0150
1732.00,0.0155
1731.00,0.0160
1730.00,0.0165
1729.00,0.0168
1728.00,0.0170
1727.00,0.0173
1726.00,0.0176
1725.00,0.0179
1724.00,0.0182
1723.00,0.0184
1722.00,0.0187
1721.00,0.0191
1720.00,0.0194
1719.00,0.0194
1718.00,0.0192
1717.00,0.0192
1716.00,0.0194
1715.00,0.0197
1714.00,0.0199
1713.00,0.0202
1712.00,0.0204
1711.00,0.0206
1710.00,0.0208
1709.00,0.0211
1708.00,0.0214
1707.00,0.0217
1706.00,0.0218
1705.00,0.0220
1704.00,0.0223
1703.00,0.0226
1702.00,0.0228
1701.00,0.0227
1700.00,0.0225
1699.00,0.0225
1698.00,0.0227
1697.00,0.0231
1696.00,0.0234
1695.00,0.0233
1694.00,0.0232
1693.00,0.0234
1692.00,0.0237
1691.00,0.0238
1690.00,0.0238
1689.00,0.0240
1688.00,0.0242
1687.00,0.0246
1686.00,0.0247
1685.00,0.0247
1684.00,0.0247
1683.00,0.0248
1682.00,0.0249
1681.00,0.0251
1680.00,0.0252
1679.00,0.0253
1678.00,0.0254
1677.00,0.0255
1676.00,0.0255
1675.00,0.0256
1674.00,0.0258
1673.00,0.0260
1672.00,0.0263
1671.00,0.0264
1670.00,0.0266
1669.00,0.0268
1668.00,0.0271
1667.00,0.0273
1666.00,0.0275
1665.00,0.0277
1664.00,0.0278
1663.00,0.0279
1662.00,0.0281
1661.00,0.0283
1660.00,0.0284
1659.00,0.0286
1658.00,0.0289
1657.00,0.0291
1656.00,0.0296
1655.00,0.0301
1654.00,0.0305
1653.00,0.0311
1652.00,0.0312
1651.00,0.0311
1650.00,0.0312
1649.00,0.0315
1648.00,0.0316
1647.00,0.0319
1646.00,0.0323
1645.00,0.0326
1644.00,0.0328
1643.00,0.0330
1642.00,0.0332
1641.00,0.0334
1640.00,0.0336
1639.00,0.0338
1638.00,0.0340
1637.00,0.0343
1636.00,0.0348
1635.00,0.0354
1634.00,0.0356
1633.00,0.0357
1632.00,0.0358
1631.00,0.0359
1630.00,0.0362
1629.00,0.0365
1628.00,0.0368
1627.00,0.0371
1626.00,0.0373
1625.00,0.0375
1624.00,0.0377
1623.00,0.0380
1622.00,0.0382
1621.00,0.0383
1620.00,0.0384
1619.00,0.0385
1618.00,0.0386
1617.00,0.0389
1616.00,0.0392
1615.00,0.0395
1614.00,0.0396
1613.00,0.0397
1612.00,0.0398
1611.00,0.0399
1610.00,0.0401
1609.00,0.0404
1608.00,0.0406
1607.00,0.0407
1606.00,0.0409
1605.00,0.0410
1604.00,0.0411
1603.00,0.0413
1602.00,0.0415
1601.00,0.0416
1600.00,0.0417
1599.00,0.0418
1598.00,0.0418
1597.00,0.0419
1596.00,0.0420
1595.00,0.0421
1594.00,0.0422
1593.00,0.0422
1592.00,0.0422
1591.00,0.0423
1590.00,0.0424
1589.00,0.0424
1588.00,0.0424
1587.00,0.0424
1586.00,0.0425
1585.00,0.0425
1584.00,0.0424
1583.00,0.0425
1582.00,0.0425
1581.00,0.0425
1580.00,0.0425
1579.00,0.0426
1578.00,0.0426
1577.00,0.0427
1576.00,0.0428
1575.00,0.0429
1574.00,0.0429
1573.00,0.0428
1572.00,0.0427
1571.00,0.0425
1570.00,0.0425
1569.00,0.0426
1568.00,0.0426
1567.00,0.0425
1566.00,0.0425
1565.00,0.0424
1564.00,0.0423
1563.00,0.0423
1562.00,0.0423
1561.00,0.0423
1560.00,0.0420
1559.00,0.0424
1558.00,0.0428
1557.00,0.0424
1556.00,0.0419
1555.00,0.0417
1554.00,0.0415
1553.00,0.0413
1552.00,0.0412
1551.00,0.0412
1550.00,0.0411
1549.00,0.0409
1548.00,0.0407
1547.00,0.0404
1546.00,0.0401
1545.00,0.0399
1544.00,0.0397
1543.00,0.0395
1542.00,0.0390
1541.00,0.0388
1540.00,0.0391
1539.00,0.0394
1538.00,0.0392
1537.00,0.0389
1536.00,0.0387
1535.00,0.0386
1534.00,0.0385
1533.00,0.0385
1532.00,0.0384
1531.00,0.0382
1530.00,0.0379
1529.00,0.0377
1528.00,0.0375
1527.00,0.0373
1526.00,0.0371
1525.00,0.0370
1524.00,0.0368
1523.00,0.0367
1522.00,0.0365
1521.00,0.0365
1520.00,0.0365
1519.00,0.0366
1518.00,0.0365
1517.00,0.0364
1516.00,0.0363
1515.00,0.0360
1514.00,0.0357
1513.00,0.0355
1512.00,0.0354
1511.00,0.0355
1510.00,0.0356
1509.00,0.0356
1508.00,0.0356
1507.00,0.0356
1506.00,0.0354
1505.00,0.0350
1504.00,0.0346
1503.00,0.0345
1502.00,0.0344
1501.00,0.0343
1500.00,0.0342
1499.00,0.0340
1498.00,0.0338
1497.00,0.0337
1496.00,0.0338
1495.00,0.0340
1494.00,0.0341
1493.00,0.0342
1492.00,0.0343
1491.00,0.0343
1490.00,0.0344
1489.00,0.0347
1488.00,0.0349
1487.00,0.0348
1486.00,0.0346
1485.00,0.0345
1484.00,0.0344
1483.00,0.0344
1482.00,0.0344
1481.00,0.0344
1480.00,0.0344
1479.00,0.0344
1478.00,0.0344
1477.00,0.0345
1476.00,0.0346
1475.00,0.0345
1474.00,0.0344
1473.00,0.0344
1472.00,0.0346
1471.00,0.0347
1470.00,0.0347
1469.00,0.0347
1468.00,0.0347
1467.00,0.0347
1466.00,0.0348
1465.00,0.0349
1464.00,0.0350
1463.00,0.0351
1462.00,0.0351
1461.00,0.0352
1460.00,0.0352
1459.00,0.0352
1458.00,0.0350
1457.00,0.0352
1456.00,0.0356
1455.00,0.0358
1454.00,0.0359
1453.00,0.0360
1452.00,0.0362
1451.00,0.0363
1450.00,0.0364
1449.00,0.0366
1448.00,0.0368
1447.00,0.0369
1446.00,0.0369
1445.00,0.0369
1444.00,0.0369
1443.00,0.0370
1442.00,0.0371
1441.00,0.0371
1440.00,0.0372
1439.00,0.0372
1438.00,0.0372
1437.00,0.0373
1436.00,0.0376
1435.00,0.0378
1434.00,0.0378
1433.00,0.0378
1432.00,0.0379
1431.00,0.0379
1430.00,0.0380
1429.00,0.0381
1428.00,0.0381
1427.00,0.0382
1426.00,0.0382
1425.00,0.0382
1424.00,0.0383
1423.00,0.0383
1422.00,0.0383
1421.00,0.0382
1420.00,0.0382
1419.00,0.0384
1418.00,0.0386
1417.00,0.0387
1416.00,0.0387
1415.00,0.0386
1414.00,0.0386
1413.00,0.0386
1412.00,0.0386
1411.00,0.0386
1410.00,0.0386
1409.00,0.0385
1408.00,0.0385
1407.00,0.0386
1406.00,0.0386
1405.00,0.0387
1404.00,0.0389
1403.00,0.0390
1402.00,0.0390
1401.00,0.0389
1400.00,0.0390
1399.00,0.0391
1398.00,0.0392
1397.00,0.0393
1396.00,0.0394
1395.00,0.0395
1394.00,0.0395
1393.00,0.0394
1392.00,0.0394
1391.00,0.0393
1390.00,0.0393
1389.00,0.0394
1388.00,0.0395
1387.00,0.0397
1386.00,0.0399
1385.00,0.0400
1384.00,0.0400
1383.00,0.0400
1382.00,0.0400
1381.00,0.0400
1380.00,0.0401
1379.00,0.0401
1378.00,0.0402
1377.00,0.0402
1376.00,0.0403
1375.00,0.0404
1374.00,0.0405
1373.00,0.0405
1372.00,0.0404
1371.00,0.0403
1370.00,0.0403
1369.00,0.0403
1368.00,0.0403
1367.00,0.0402
1366.00,0.0402
1365.00,0.0402
1364.00,0.0403
1363.00,0.0404
1362.00,0.0405
1361.00,0.0405
1360.00,0.0404
1359.00,0.0403
1358.00,0.0401
1357.00,0.0401
1356.00,0.0400
1355.00,0.0400
1354.00,0.0400
1353.00,0.0399
1352.00,0.0398
1351.00,0.0397
1350.00,0.0396
1349.00,0.0395
1348.00,0.0395
1347.00,0.0395
1346.00,0.0395
1345.00,0.0395
1344.00,0.0395
1343.00,0.0394
1342.00,0.0394
1341.00,0.0394
1340.00,0.0394
1339.00,0.0395
1338.00,0.0395
1337.00,0.0395
1336.00,0.0393
1335.00,0.0392
1334.00,0.0391
1333.00,0.0391
1332.00,0.0390
1331.00,0.0390
1330.00,0.0390
1329.00,0.0390
1328.00,0.0390
1327.00,0.0389
1326.00,0.0389
1325.00,0.0389
1324.00,0.0389
1323.00,0.0389
1322.00,0.0389
1321.00,0.0389
1320.00,0.0389
1319.00,0.0389
1318.00,0.0391
1317.00,0.0392
1316.00,0.0394
1315.00,0.0394
1314.00,0.0394
1313.00,0.0395
1312.00,0.0395
1311.00,0.0395
1310.00,0.0395
1309.00,0.0395
1308.00,0.0395
1307.00,0.0396
1306.00,0.0396
1305.00,0.0396
1304.00,0.0397
1303.00,0.0397
1302.00,0.0398
1301.00,0.0398
1300.00,0.0399
1299.00,0.0400
1298.00,0.0400
1297.00,0.0400
1296.00,0.0400
1295.00,0.0400
1294.00,0.0401
1293.00,0.0402
1292.00,0.0402
1291.00,0.0403
1290.00,0.0404
1289.00,0.0404
1288.00,0.0405
1287.00,0.0405
1286.00,0.0405
1285.00,0.0405
1284.00,0.0405
1283.00,0.0405
1282.00,0.0405
1281.00,0.0405
1280.00,0.0405
1279.00,0.0405
1278.00,0.0406
1277.00,0.0406
1276.00,0.0406
1275.00,0.0406
1274.00,0.0406
1273.00,0.0406
1272.00,0.0405
1271.00,0.0404
1270.00,0.0404
1269.00,0.0403
1268.00,0.0403
1267.00,0.0403
1266.00,0.0402
1265.00,0.0401
1264.00,0.0400
1263.00,0.0399
1262.00,0.0399
1261.00,0.0399
1260.00,0.0399
1259.00,0.0400
1258.00,0.0400
1257.00,0.0400
1256.00,0.0400
1255.00,0.0400
1254.00,0.0400
1253.00,0.0401
1252.00,0.0401
1251.00,0.0401
1250.00,0.0401
1249.00,0.0401
1248.00,0.0401
1247.00,0.0401
1246.00,0.0401
1245.00,0.0401
1244.00,0.0401
1243.00,0.0401
1242.00,0.0400
1241.00,0.0400
1240.00,0.0400
1239.00,0.0399
1238.00,0.0399
1237.00,0.0399
1236.00,0.0399
1235.00,0.0399
1234.00,0.0398
1233.00,0.0398
1232.00,0.0398
1231.00,0.0398
1230.00,0.0398
1229.00,0.0398
1228.00,0.0398
1227.00,0.0398
1226.00,0.0398
1225.00,0.0398
1224.00,0.0398
1223.00,0.0397
1222.00,0.0397
1221.00,0.0396
1220.00,0.0396
1219.00,0.0395
1218.00,0.0395
1217.00,0.0395
1216.00,0.0395
1215.00,0.0395
1214.00,0.0394
1213.00,0.0394
1212.00,0.0393
1211.00,0.0393
1210.00,0.0393
1209.00,0.0394
1208.00,0.0393
1207.00,0.0393
1206.00,0.0393
1205.00,0.0392
1204.00,0.0392
1203.00,0.0392
1202.00,0.0392
1201.00,0.0393
1200.00,0.0393
1199.00,0.0394
1198.00,0.0393
1197.00,0.0393
1196.00,0.0393
1195.00,0.0393
1194.00,0.0393
1193.00,0.0393
1192.00,0.0392
1191.00,0.0392
1190.00,0.0392
1189.00,0.0393
1188.00,0.0394
1187.00,0.0395
1186.00,0.0395
1185.00,0.0395
1184.00,0.0395
1183.00,0.0395
1182.00,0.0394
1181.00,0.0394
1180.00,0.0394
1179.00,0.0395
1178.00,0.0395
1177.00,0.0394
1176.00,0.0393
1175.00,0.0392
1174.00,0.0391
1173.00,0.0391
1172.00,0.0390
1171.00,0.0389
1170.00,0.0388
1169.00,0.0388
1168.00,0.0388
1167.00,0.0389
1166.00,0.0389
1165.00,0.0389
1164.00,0.0388
1163.00,0.0387
1162.00,0.0386
1161.00,0.0386
1160.00,0.0386
1159.00,0.0386
1158.00,0.0385
1157.00,0.0384
1156.00,0.0383
1155.00,0.0382
1154.00,0.0382
1153.00,0.0382
1152.00,0.0382
1151.00,0.0381
1150.00,0.0381
1149.00,0.0382
1148.00,0.0382
1147.00,0.0383
1146.00,0.0384
1145.00,0.0384
1144.00,0.0383
1143.00,0.0383
1142.00,0.0382
1141.00,0.0381
1140.00,0.0381
1139.00,0.0381
1138.00,0.0381
1137.00,0.0382
1136.00,0.0383
1135.00,0.0383
1134.00,0.0383
1133.00,0.0383
1132.00,0.0383
1131.00,0.0383
1130.00,0.0383
1129.00,0.0383
1128.00,0.0383
1127.00,0.0384
1126.00,0.0385
1125.00,0.0386
1124.00,0.0387
1123.00,0.0387
1122.00,0.0387
1121.00,0.0386
1120.00,0.0386
1119.00,0.0387
1118.00,0.0388
1117.00,0.0389
1116.00,0.0390
1115.00,0.0390
1114.00,0.0390
1113.00,0.0390
1112.00,0.0390
1111.00,0.0390
1110.00,0.0391
1109.00,0.0391
1108.00,0.0393
1107.00,0.0394
1106.00,0.0395
1105.00,0.0396
1104.00,0.0397
1103.00,0.0398
1102.00,0.0398
1101.00,0.0398
1100.00,0.0398
1099.00,0.0398
1098.00,0.0397
1097.00,0.0397
1096.00,0.0396
1095.00,0.0396
1094.00,0.0397
1093.00,0.0398
1092.00,0.0399
1091.00,0.0400
1090.00,0.0400
1089.00,0.0400
1088.00,0.0400
1087.00,0.0400
1086.00,0.0400
1085.00,0.0400
1084.00,0.0400
1083.00,0.0401
1082.00,0.0401
1081.00,0.0401
1080.00,0.0401
1079.00,0.0401
1078.00,0.0402
1077.00,0.0403
1076.00,0.0403
1075.00,0.0404
1074.00,0.0404
1073.00,0.0404
1072.00,0.0405
1071.00,0.0405
1070.00,0.0405
1069.00,0.0404
1068.00,0.0403
1067.00,0.0404
1066.00,0.0405
1065.00,0.0406
1064.00,0.0406
1063.00,0.0406
1062.00,0.0406
1061.00,0.0406
1060.00,0.0407
1059.00,0.0408
1058.00,0.0409
1057.00,0.0409
1056.00,0.0408
1055.00,0.0407
1054.00,0.0406
1053.00,0.0407
1052.00,0.0409
1051.00,0.0410
1050.00,0.0411
1049.00,0.0411
1048.00,0.0411
1047.00,0.0411
1046.00,0.0411
1045.00,0.0411
1044.00,0.0410
1043.00,0.0410
1042.00,0.0409
1041.00,0.0410
1040.00,0.0410
1039.00,0.0410
1038.00,0.0410
1037.00,0.0410
1036.00,0.0410
1035.00,0.0411
1034.00,0.0411
1033.00,0.0411
1032.00,0.0410
1031.00,0.0408
1030.00,0.0405
1029.00,0.0403
1028.00,0.0402
1027.00,0.0401
1026.00,0.0400
1025.00,0.0399
1024.00,0.0398
1023.00,0.0397
1022.00,0.0396
1021.00,0.0395
1020.00,0.0395
1019.00,0.0395
1018.00,0.0394
1017.00,0.0393
1016.00,0.0393
1015.00,0.0393
1014.00,0.0393
1013.00,0.0393
1012.00,0.0394
1011.00,0.0394
1010.00,0.0395
1009.00,0.0395
1008.00,0.0395
1007.00,0.0395
1006.00,0.0395
1005.00,0.0395
1004.00,0.0394
1003.00,0.0393
1002.00,0.0392
1001.00,0.0390
1000.00,0.0389
999.00,0.0388
998.00,0.0386
997.00,0.0384
996.00,0.0381
995.00,0.0379
994.00,0.0378
993.00,0.0378
992.00,0.0378
991.00,0.0378
990.00,0.0376
989.00,0.0374
988.00,0.0373
987.00,0.0374
986.00,0.0374
985.00,0.0375
984.00,0.0374
983.00,0.0374
982.00,0.0373
981.00,0.0372
980.00,0.0371
979.00,0.0370
978.00,0.0369
977.00,0.0368
976.00,0.0367
975.00,0.0366
974.00,0.0366
973.00,0.0365
972.00,0.0365
971.00,0.0364
970.00,0.0364
969.00,0.0363
968.00,0.0364
967.00,0.0364
966.00,0.0363
965.00,0.0362
964.00,0.0362
963.00,0.0361
962.00,0.0361
961.00,0.0361
960.00,0.0361
959.00,0.0360
958.00,0.0359
957.00,0.0358
956.00,0.0358
955.00,0.0359
954.00,0.0361
953.00,0.0361
952.00,0.0361
951.00,0.0360
950.00,0.0359
949.00,0.0359
948.00,0.0360
947.00,0.0361
946.00,0.0362
945.00,0.0363
944.00,0.0363
943.00,0.0362
942.00,0.0362
941.00,0.0362
940.00,0.0363
939.00,0.0364
938.00,0.0365
937.00,0.0365
936.00,0.0366
935.00,0.0366
934.00,0.0366
933.00,0.0365
932.00,0.0365
931.00,0.0364
930.00,0.0364
929.00,0.0365
928.00,0.0365
927.00,0.0365
926.00,0.0365
925.00,0.0365
924.00,0.0366
923.00,0.0366
922.00,0.0367
921.00,0.0369
920.00,0.0370
919.00,0.0372
918.00,0.0374
917.00,0.0375
916.00,0.0376
915.00,0.0375
914.00,0.0374
913.00,0.0374
912.00,0.0375
911.00,0.0376
910.00,0.0377
909.00,0.0377
908.00,0.0376
907.00,0.0375
906.00,0.0375
905.00,0.0374
904.00,0.0374
903.00,0.0374
902.00,0.0374
901.00,0.0374
900.00,0.0375
899.00,0.0376
898.00,0.0376
897.00,0.0375
896.00,0.0375
895.00,0.0375
894.00,0.0375
893.00,0.0375
892.00,0.0375
891.00,0.0376
890.00,0.0376
889.00,0.0376
888.00,0.0377
887.00,0.0377
886.00,0.0378
885.00,0.0379
884.00,0.0380
883.00,0.0380
882.00,0.0381
881.00,0.0382
880.00,0.0384
879.00,0.0385
878.00,0.0386
877.00,0.0387
876.00,0.0388
875.00,0.0387
874.00,0.0386
873.00,0.0384
872.00,0.0383
871.00,0.0382
870.00,0.0383
869.00,0.0384
868.00,0.0385
867.00,0.0387
866.00,0.0387
865.00,0.0387
864.00,0.0387
863.00,0.0388
862.00,0.0389
861.00,0.0391
860.00,0.0391
859.00,0.0391
858.00,0.0391
857.00,0.0391
856.00,0.0392
855.00,0.0394
854.00,0.0395
853.00,0.0396
852.00,0.0396
851.00,0.0395
850.00,0.0395
849.00,0.0396
848.00,0.0398
847.00,0.0401
846.00,0.0403
845.00,0.0405
844.00,0.0407
843.00,0.0408
842.00,0.0409
841.00,0.0409
840.00,0.0410
839.00,0.0412
838.00,0.0416
837.00,0.0419
836.00,0.0421
835.00,0.0421
834.00,0.0421
833.00,0.0421
832.00,0.0422
831.00,0.0423
830.00,0.0424
829.00,0.0425
828.00,0.0425
827.00,0.0424
826.00,0.0424
825.00,0.0425
824.00,0.0427
823.00,0.0430
822.00,0.0431
821.00,0.0432
820.00,0.0432
819.00,0.0434
818.00,0.0436
817.00,0.0438
816.00,0.0439
815.00,0.0439
814.00,0.0438
813.00,0.0437
812.00,0.0437
811.00,0.0438
810.00,0.0439
809.00,0.0439
808.00,0.0439
807.00,0.0440
806.00,0.0441
805.00,0.0442
804.00,0.0443
803.00,0.0444
802.00,0.0444
801.00,0.0445
800.00,0.0446
799.00,0.0445
798.00,0.0444
797.00,0.0445
796.00,0.0447
795.00,0.0450
794.00,0.0454
793.00,0.0456
792.00,0.0458
791.00,0.0459
790.00,0.0461
789.00,0.0461
788.00,0.0462
787.00,0.0462
786.00,0.0463
785.00,0.0465
784.00,0.0467
783.00,0.0468
782.00,0.0468
781.00,0.0468
780.00,0.0468
779.00,0.0468
778.00,0.0469
777.00,0.0470
776.00,0.0471
775.00,0.0472
774.00,0.0472
773.00,0.0473
772.00,0.0473
771.00,0.0475
770.00,0.0476
769.00,0.0477
768.00,0.0477
767.00,0.0477
766.00,0.0477
765.00,0.0478
764.00,0.0480
763.00,0.0481
762.00,0.0481
761.00,0.0481
760.00,0.0482
759.00,0.0484
758.00,0.0486
757.00,0.0487
756.00,0.0489
755.00,0.0491
754.00,0.0492
753.00,0.0492
752.00,0.0492
751.00,0.0491
750.00,0.0491
749.00,0.0490
748.00,0.0490
747.00,0.0491
746.00,0.0491
745.00,0.0491
744.00,0.0492
743.00,0.0493
742.00,0.0493
741.00,0.0493
740.00,0.0493
739.00,0.0495
738.00,0.0496
737.00,0.0497
736.00,0.0497
735.00,0.0496
734.00,0.0495
733.00,0.0494
732.00,0.0494
731.00,0.0495
730.00,0.0497
729.00,0.0497
728.00,0.0498
727.00,0.0500
726.00,0.0501
725.00,0.0502
724.00,0.0503
723.00,0.0503
722.00,0.0503
721.00,0.0504
720.00,0.0506
719.00,0.0506
718.00,0.0507
717.00,0.0507
716.00,0.0508
715.00,0.0510
714.00,0.0514
713.00,0.0518
712.00,0.0523
711.00,0.0526
710.00,0.0525
709.00,0.0522
708.00,0.0520
707.00,0.0521
706.00,0.0524
705.00,0.0530
704.00,0.0535
703.00,0.0538
702.00,0.0539
701.00,0.0538
700.00,0.0537
699.00,0.0538
698.00,0.0540
697.00,0.0541
696.00,0.0541
695.00,0.0541
694.00,0.0539
693.00,0.0538
692.00,0.0540
691.00,0.0543
690.00,0.0546
689.00,0.0547
688.00,0.0546
687.00,0.0545
686.00,0.0544
685.00,0.0544
684.00,0.0544
683.00,0.0546
682.00,0.0548
681.00,0.0551
680.00,0.0554
679.00,0.0556
678.00,0.0557
677.00,0.0560
676.00,0.0565
675.00,0.0569
674.00,0.0571
673.00,0.0571
672.00,0.0569
671.00,0.0565
670.00,0.0561
669.00,0.0563
668.00,0.0579
667.00,0.0596
666.00,0.0600
665.00,0.0594
664.00,0.0588
663.00,0.0583
662.00,0.0580
661.00,0.0581
660.00,0.0587
659.00,0.0595
658.00,0.0600
657.00,0.0600
656.00,0.0597
655.00,0.0596
654.00,0.0597
653.00,0.0599
652.00,0.0602
651.00,0.0603
650.00,0.0603
