Created as New Dataset,
cm-1,A
4000.00,0.0004
3999.00,0.0004
3998.00,0.0004
3997.00,0.0003
3996.00,0.0004
3995.00,0.0005
3994.00,0.0005
3993.00,0.0005
3992.00,0.0004
3991.00,0.0004
3990.00,0.0003
3989.00,0.0003
3988.00,0.0003
3987.00,0.0003
3986.00,0.0004
3985.00,0.0004
3984.00,0.0004
3983.00,0.0004
3982.00,0.0004
3981.00,0.0005
3980.00,0.0005
3979.00,0.0004
3978.00,0.0004
3977.00,0.0004
3976.00,0.0004
3975.00,0.0005
3974.00,0.0005
3973.00,0.0006
3972.00,0.0005
3971.00,0.0005
3970.00,0.0004
3969.00,0.0004
3968.00,0.0003
3967.00,0.0003
3966.00,0.0004
3965.00,0.0004
3964.00,0.0005
3963.00,0.0005
3962.00,0.0005
3961.00,0.0005
3960.00,0.0005
3959.00,0.0005
3958.00,0.0005
3957.00,0.0005
3956.00,0.0005
3955.00,0.0005
3954.00,0.0005
3953.00,0.0005
3952.00,0.0005
3951.00,0.0005
3950.00,0.0006
3949.00,0.0006
3948.00,0.0006
3947.00,0.0007
3946.00,0.0008
3945.00,0.0009
3944.00,0.0009
3943.00,0.0008
3942.00,0.0007
3941.00,0.0007
3940.00,0.0007
3939.00,0.0007
3938.00,0.0006
3937.00,0.0005
3936.00,0.0005
3935.00,0.0006
3934.00,0.0006
3933.00,0.0007
3932.00,0.0008
3931.00,0.0008
3930.00,0.0009
3929.00,0.0009
3928.00,0.0009
3927.00,0.0009
3926.00,0.0009
3925.00,0.0008
3924.00,0.0008
3923.00,0.0008
3922.00,0.0008
3921.00,0.0008
3920.00,0.0008
3919.00,0.0008
3918.00,0.0008
3917.00,0.0008
3916.00,0.0008
3915.00,0.0007
3914.00,0.0007
3913.00,0.0007
3912.00,0.0006
3911.00,0.0006
3910.00,0.0006
3909.00,0.0006
3908.00,0.0007
3907.00,0.0008
3906.00,0.0009
3905.00,0.0009
3904.00,0.0010
3903.00,0.0012
3902.00,0.0014
3901.00,0.0015
3900.00,0.0015
3899.00,0.0013
3898.00,0.0011
3897.00,0.0010
3896.00,0.0009
3895.00,0.0009
3894.00,0.0010
3893.00,0.0009
3892.00,0.0009
3891.00,0.0008
3890.00,0.0007
3889.00,0.0009
3888.00,0.0010
3887.00,0.0011
3886.00,0.0009
3885.00,0.0009
3884.00,0.0011
3883.00,0.0014
3882.00,0.0015
3881.00,0.0014
3880.00,0.0011
3879.00,0.0009
3878.00,0.0010
3877.00,0.0011
3876.00,0.0011
3875.00,0.0010
3874.00,0.0009
3873.00,0.0009
3872.00,0.0011
3871.00,0.0012
3870.00,0.0010
3869.00,0.0009
3868.00,0.0010
3867.00,0.0012
3866.00,0.0013
3865.00,0.0011
3864.00,0.0010
3863.00,0.0010
3862.00,0.0011
3861.00,0.0010
3860.00,0.0009
3859.00,0.0008
3858.00,0.0007
3857.00,0.0008
3856.00,0.0009
3855.00,0.0008
3854.00,0.0007
3853.00,0.0007
3852.00,0.0008
3851.00,0.0010
3850.00,0.0011
3849.00,0.0010
3848.00,0.0008
3847.00,0.0007
3846.00,0.0007
3845.00,0.0007
3844.00,0.0006
3843.00,0.0007
3842.00,0.0007
3841.00,0.0009
3840.00,0.0010
3839.00,0.0011
3838.00,0.0011
3837.00,0.0011
3836.00,0.0012
3835.00,0.0012
3834.00,0.0012
3833.00,0.0011
3832.00,0.0009
3831.00,0.0008
3830.00,0.0008
3829.00,0.0009
3828.00,0.0009
3827.00,0.0008
3826.00,0.0006
3825.00,0.0006
3824.00,0.0009
3823.00,0.0010
3822.00,0.0009
3821.00,0.0007
3820.00,0.0007
3819.00,0.0008
3818.00,0.0010
3817.00,0.0010
3816.00,0.0007
3815.00,0.0006
3814.00,0.0007
3813.00,0.0008
3812.00,0.0007
3811.00,0.0006
3810.00,0.0005
3809.00,0.0005
3808.00,0.0005
3807.00,0.0003
3806.00,0.0003
3805.00,0.0004
3804.00,0.0007
3803.00,0.0009
3802.00,0.0008
3801.00,0.0007
3800.00,0.0008
3799.00,0.0010
3798.00,0.0011
3797.00,0.0010
3796.00,0.0008
3795.00,0.0007
3794.00,0.0007
3793.00,0.0008
3792.00,0.0007
3791.00,0.0006
3790.00,0.0005
3789.00,0.0005
3788.00,0.0005
3787.00,0.0005
3786.00,0.0005
3785.00,0.0005
3784.00,0.0006
3783.00,0.0007
3782.00,0.0008
3781.00,0.0008
3780.00,0.0007
3779.00,0.0006
3778.00,0.0006
3777.00,0.0006
3776.00,0.0006
3775.00,0.0006
3774.00,0.0005
3773.00,0.0005
3772.00,0.0005
3771.00,0.0005
3770.00,0.0005
3769.00,0.0005
3768.00,0.0007
3767.00,0.0008
3766.00,0.0008
3765.00,0.0007
3764.00,0.0006
3763.00,0.0007
3762.00,0.0008
3761.00,0.0008
3760.00,0.0007
3759.00,0.0007
3758.00,0.0007
3757.00,0.0007
3756.00,0.0007
3755.00,0.0008
3754.00,0.0007
3753.00,0.0005
3752.00,0.0004
3751.00,0.0005
3750.00,0.0007
3749.00,0.0008
3748.00,0.0009
3747.00,0.0011
3746.00,0.0013
3745.00,0.0011
3744.00,0.0008
3743.00,0.0007
3742.00,0.0008
3741.00,0.0009
3740.00,0.0008
3739.00,0.0007
3738.00,0.0007
3737.00,0.0008
3736.00,0.0010
3735.00,0.0012
3734.00,0.0013
3733.00,0.0012
3732.00,0.0010
3731.00,0.0008
3730.00,0.0007
3729.00,0.0007
3728.00,0.0008
3727.00,0.0007
3726.00,0.0007
3725.00,0.0008
3724.00,0.0009
3723.00,0.0010
3722.00,0.0009
3721.00,0.0009
3720.00,0.0009
3719.00,0.0008
3718.00,0.0007
3717.00,0.0006
3716.00,0.0006
3715.00,0.0006
3714.00,0.0006
3713.00,0.0006
3712.00,0.0006
3711.00,0.0008
3710.00,0.0010
3709.00,0.0010
3708.00,0.0009
3707.00,0.0007
3706.00,0.0005
3705.00,0.0005
3704.00,0.0006
3703.00,0.0006
3702.00,0.0007
3701.00,0.0007
3700.00,0.0007
3699.00,0.0007
3698.00,0.0007
3697.00,0.0006
3696.00,0.0005
3695.00,0.0005
3694.00,0.0006
3693.00,0.0007
3692.00,0.0007
3691.00,0.0007
3690.00,0.0009
3689.00,0.0010
3688.00,0.0010
3687.00,0.0010
3686.00,0.0010
3685.00,0.0009
3684.00,0.0009
3683.00,0.0008
3682.00,0.0007
3681.00,0.0007
3680.00,0.0006
3679.00,0.0006
3678.00,0.0009
3677.00,0.0012
3676.00,0.0014
3675.00,0.0014
3674.00,0.0015
3673.00,0.0017
3672.00,0.0018
3671.00,0.0017
3670.00,0.0015
3669.00,0.0016
3668.00,0.0017
3667.00,0.0018
3666.00,0.0017
3665.00,0.0015
3664.00,0.0014
3663.00,0.0013
3662.00,0.0013
3661.00,0.0013
3660.00,0.0013
3659.00,0.0014
3658.00,0.0016
3657.00,0.0017
3656.00,0.0018
3655.00,0.0019
3654.00,0.0021
3653.00,0.0023
3652.00,0.0023
3651.00,0.0022
3650.00,0.0023
3649.00,0.0028
3648.00,0.0033
3647.00,0.0034
3646.00,0.0032
3645.00,0.0030
3644.00,0.0028
3643.00,0.0027
3642.00,0.0026
3641.00,0.0026
3640.00,0.0026
3639.00,0.0026
3638.00,0.0027
3637.00,0.0027
3636.00,0.0028
3635.00,0.0029
3634.00,0.0028
3633.00,0.0028
3632.00,0.0030
3631.00,0.0033
3630.00,0.0034
3629.00,0.0035
3628.00,0.0037
3627.00,0.0038
3626.00,0.0038
3625.00,0.0036
3624.00,0.0034
3623.00,0.0033
3622.00,0.0034
3621.00,0.0036
3620.00,0.0038
3619.00,0.0041
3618.00,0.0042
3617.00,0.0044
3616.00,0.0044
3615.00,0.0043
3614.00,0.0042
3613.00,0.0041
3612.00,0.0041
3611.00,0.0042
3610.00,0.0043
3609.00,0.0043
3608.00,0.0043
3607.00,0.0043
3606.00,0.0043
3605.00,0.0043
3604.00,0.0043
3603.00,0.0042
3602.00,0.0042
3601.00,0.0042
3600.00,0.0043
3599.00,0.0044
3598.00,0.0045
3597.00,0.0046
3596.00,0.0047
3595.00,0.0047
3594.00,0.0048
3593.00,0.0048
3592.00,0.0048
3591.00,0.0048
3590.00,0.0049
3589.00,0.0050
3588.00,0.0052
3587.00,0.0053
3586.00,0.0054
3585.00,0.0054
3584.00,0.0054
3583.00,0.0053
3582.00,0.0052
3581.00,0.0051
3580.00,0.0051
3579.00,0.0051
3578.00,0.0051
3577.00,0.0051
3576.00,0.0051
3575.00,0.0050
3574.00,0.0050
3573.00,0.0051
3572.00,0.0052
3571.00,0.0053
3570.00,0.0054
3569.00,0.0055
3568.00,0.0056
3567.00,0.0059
3566.00,0.0061
3565.00,0.0062
3564.00,0.0062
3563.00,0.0061
3562.00,0.0059
3561.00,0.0058
3560.00,0.0057
3559.00,0.0056
3558.00,0.0056
3557.00,0.0055
3556.00,0.0055
3555.00,0.0055
3554.00,0.0055
3553.00,0.0056
3552.00,0.0057
3551.00,0.0058
3550.00,0.0059
3549.00,0.0060
3548.00,0.0060
3547.00,0.0061
3546.00,0.0062
3545.00,0.0062
3544.00,0.0062
3543.00,0.0062
3542.00,0.0061
3541.00,0.0061
3540.00,0.0061
3539.00,0.0061
3538.00,0.0061
3537.00,0.0062
3536.00,0.0062
3535.00,0.0062
3534.00,0.0062
3533.00,0.0061
3532.00,0.0061
3531.00,0.0062
3530.00,0.0062
3529.00,0.0063
3528.00,0.0064
3527.00,0.0064
3526.00,0.0065
3525.00,0.0065
3524.00,0.0066
3523.00,0.0066
3522.00,0.0066
3521.00,0.0066
3520.00,0.0066
3519.00,0.0066
3518.00,0.0066
3517.00,0.0067
3516.00,0.0067
3515.00,0.0067
3514.00,0.0067
3513.00,0.0067
3512.00,0.0068
3511.00,0.0068
3510.00,0.0069
3509.00,0.0069
3508.00,0.0069
3507.00,0.0069
3506.00,0.0069
3505.00,0.0069
3504.00,0.0070
3503.00,0.0071
3502.00,0.0072
3501.00,0.0072
3500.00,0.0072
3499.00,0.0072
3498.00,0.0071
3497.00,0.0071
3496.00,0.0071
3495.00,0.0071
3494.00,0.0072
3493.00,0.0072
3492.00,0.0071
3491.00,0.0070
3490.00,0.0070
3489.00,0.0070
3488.00,0.0070
3487.00,0.0071
3486.00,0.0072
3485.00,0.0073
3484.00,0.0074
3483.00,0.0074
3482.00,0.0074
3481.00,0.0074
3480.00,0.0074
3479.00,0.0074
3478.00,0.0074
3477.00,0.0074
3476.00,0.0074
3475.00,0.0074
3474.00,0.0074
3473.00,0.0074
3472.00,0.0075
3471.00,0.0075
3470.00,0.0076
3469.00,0.0076
3468.00,0.0076
3467.00,0.0076
3466.00,0.0076
3465.00,0.0077
3464.00,0.0077
3463.00,0.0077
3462.00,0.0077
3461.00,0.0076
3460.00,0.0076
3459.00,0.0076
3458.00,0.0076
3457.00,0.0076
3456.00,0.0076
3455.00,0.0077
3454.00,0.0078
3453.00,0.0079
3452.00,0.0079
3451.00,0.0080
3450.00,0.0080
3449.00,0.0080
3448.00,0.0080
3447.00,0.0080
3446.00,0.0080
3445.00,0.0081
3444.00,0.0080
3443.00,0.0080
3442.00,0.0080
3441.00,0.0080
3440.00,0.0080
3439.00,0.0080
3438.00,0.0080
3437.00,0.0080
3436.00,0.0080
3435.00,0.0081
3434.00,0.0081
3433.00,0.0081
3432.00,0.0082
3431.00,0.0082
3430.00,0.0082
3429.00,0.0082
3428.00,0.0082
3427.00,0.0082
3426.00,0.0082
3425.00,0.0082
3424.00,0.0083
3423.00,0.0083
3422.00,0.0083
3421.00,0.0083
3420.00,0.0083
3419.00,0.0084
3418.00,0.0084
3417.00,0.0084
3416.00,0.0084
3415.00,0.0084
3414.00,0.0084
3413.00,0.0085
3412.00,0.0086
3411.00,0.0086
3410.00,0.0085
3409.00,0.0085
3408.00,0.0084
3407.00,0.0084
3406.00,0.0085
3405.00,0.0086
3404.00,0.0086
3403.00,0.0087
3402.00,0.0087
3401.00,0.0086
3400.00,0.0086
3399.00,0.0086
3398.00,0.0086
3397.00,0.0086
3396.00,0.0087
3395.00,0.0087
3394.00,0.0087
3393.00,0.0087
3392.00,0.0088
3391.00,0.0088
3390.00,0.0087
3389.00,0.0087
3388.00,0.0087
3387.00,0.0087
3386.00,0.0087
3385.00,0.0088
3384.00,0.0089
3383.00,0.0088
3382.00,0.0088
3381.00,0.0087
3380.00,0.0086
3379.00,0.0086
3378.00,0.0087
3377.00,0.0088
3376.00,0.0088
3375.00,0.0088
3374.00,0.0088
3373.00,0.0089
3372.00,0.0089
3371.00,0.0089
3370.00,0.0089
3369.00,0.0089
3368.00,0.0089
3367.00,0.0089
3366.00,0.0090
3365.00,0.0090
3364.00,0.0090
3363.00,0.0090
3362.00,0.0090
3361.00,0.0090
3360.00,0.0090
3359.00,0.0090
3358.00,0.0090
3357.00,0.0090
3356.00,0.0091
3355.00,0.0091
3354.00,0.0091
3353.00,0.0091
3352.00,0.0090
3351.00,0.0090
3350.00,0.0090
3349.00,0.0089
3348.00,0.0089
3347.00,0.0088
3346.00,0.0088
3345.00,0.0089
3344.00,0.0090
3343.00,0.0090
3342.00,0.0091
3341.00,0.0091
3340.00,0.0091
3339.00,0.0091
3338.00,0.0091
3337.00,0.0091
3336.00,0.0091
3335.00,0.0091
3334.00,0.0091
3333.00,0.0092
3332.00,0.0092
3331.00,0.0091
3330.00,0.0091
3329.00,0.0091
3328.00,0.0091
3327.00,0.0091
3326.00,0.0092
3325.00,0.0092
3324.00,0.0092
3323.00,0.0093
3322.00,0.0093
3321.00,0.0092
3320.00,0.0092
3319.00,0.0092
3318.00,0.0091
3317.00,0.0091
3316.00,0.0092
3315.00,0.0092
3314.00,0.0092
3313.00,0.0092
3312.00,0.0092
3311.00,0.0092
3310.00,0.0092
3309.00,0.0092
3308.00,0.0092
3307.00,0.0093
3306.00,0.0093
3305.00,0.0094
3304.00,0.0094
3303.00,0.0094
3302.00,0.0094
3301.00,0.0093
3300.00,0.0092
3299.00,0.0092
3298.00,0.0092
3297.00,0.0093
3296.00,0.0093
3295.00,0.0093
3294.00,0.0093
3293.00,0.0093
3292.00,0.0093
3291.00,0.0093
3290.00,0.0093
3289.00,0.0094
3288.00,0.0094
3287.00,0.0094
3286.00,0.0094
3285.00,0.0094
3284.00,0.0094
3283.00,0.0094
3282.00,0.0094
3281.00,0.0093
3280.00,0.0093
3279.00,0.0093
3278.00,0.0093
3277.00,0.0093
3276.00,0.0093
3275.00,0.0094
3274.00,0.0094
3273.00,0.0095
3272.00,0.0095
3271.00,0.0095
3270.00,0.0094
3269.00,0.0094
3268.00,0.0094
3267.00,0.0094
3266.00,0.0094
3265.00,0.0094
3264.00,0.0094
3263.00,0.0094
3262.00,0.0094
3261.00,0.0094
3260.00,0.0094
3259.00,0.0094
3258.00,0.0095
3257.00,0.0095
3256.00,0.0095
3255.00,0.0095
3254.00,0.0094
3253.00,0.0094
3252.00,0.0093
3251.00,0.0093
3250.00,0.0094
3249.00,0.0094
3248.00,0.0095
3247.00,0.0096
3246.00,0.0096
3245.00,0.0096
3244.00,0.0096
3243.00,0.0096
3242.00,0.0096
3241.00,0.0096
3240.00,0.0096
3239.00,0.0096
3238.00,0.0096
3237.00,0.0096
3236.00,0.0096
3235.00,0.0096
3234.00,0.0096
3233.00,0.0096
3232.00,0.0097
3231.00,0.0097
3230.00,0.0097
3229.00,0.0097
3228.00,0.0096
3227.00,0.0096
3226.00,0.0096
3225.00,0.0096
3224.00,0.0096
3223.00,0.0096
3222.00,0.0096
3221.00,0.0096
3220.00,0.0096
3219.00,0.0096
3218.00,0.0095
3217.00,0.0095
3216.00,0.0094
3215.00,0.0095
3214.00,0.0095
3213.00,0.0096
3212.00,0.0097
3211.00,0.0097
3210.00,0.0097
3209.00,0.0097
3208.00,0.0096
3207.00,0.0096
3206.00,0.0096
3205.00,0.0096
3204.00,0.0097
3203.00,0.0096
3202.00,0.0096
3201.00,0.0096
3200.00,0.0096
3199.00,0.0096
3198.00,0.0096
3197.00,0.0096
3196.00,0.0096
3195.00,0.0096
3194.00,0.0096
3193.00,0.0096
3192.00,0.0096
3191.00,0.0096
3190.00,0.0096
3189.00,0.0096
3188.00,0.0096
3187.00,0.0096
3186.00,0.0096
3185.00,0.0096
3184.00,0.0096
3183.00,0.0096
3182.00,0.0096
3181.00,0.0096
3180.00,0.0096
3179.00,0.0096
3178.00,0.0096
3177.00,0.0096
3176.00,0.0096
3175.00,0.0096
3174.00,0.0096
3173.00,0.0096
3172.00,0.0096
3171.00,0.0095
3170.00,0.0095
3169.00,0.0095
3168.00,0.0095
3167.00,0.0095
3166.00,0.0095
3165.00,0.0095
3164.00,0.0095
3163.00,0.0095
3162.00,0.0095
3161.00,0.0095
3160.00,0.0095
3159.00,0.0095
3158.00,0.0095
3157.00,0.0095
3156.00,0.0095
3155.00,0.0095
3154.00,0.0094
3153.00,0.0094
3152.00,0.0094
3151.00,0.0094
3150.00,0.0094
3149.00,0.0094
3148.00,0.0094
3147.00,0.0094
3146.00,0.0094
3145.00,0.0094
3144.00,0.0094
3143.00,0.0094
3142.00,0.0094
3141.00,0.0094
3140.00,0.0094
3139.00,0.0094
3138.00,0.0093
3137.00,0.0093
3136.00,0.0094
3135.00,0.0094
3134.00,0.0093
3133.00,0.0093
3132.00,0.0093
3131.00,0.0093
3130.00,0.0093
3129.00,0.0093
3128.00,0.0093
3127.00,0.0093
3126.00,0.0093
3125.00,0.0093
3124.00,0.0093
3123.00,0.0093
3122.00,0.0092
3121.00,0.0092
3120.00,0.0092
3119.00,0.0092
3118.00,0.0092
3117.00,0.0092
3116.00,0.0092
3115.00,0.0093
3114.00,0.0093
3113.00,0.0093
3112.00,0.0093
3111.00,0.0092
3110.00,0.0092
3109.00,0.0091
3108.00,0.0091
3107.00,0.0091
3106.00,0.0091
3105.00,0.0091
3104.00,0.0091
3103.00,0.0092
3102.00,0.0092
3101.00,0.0092
3100.00,0.0092
3099.00,0.0092
3098.00,0.0092
3097.00,0.0092
3096.00,0.0092
3095.00,0.0092
3094.00,0.0092
3093.00,0.0092
3092.00,0.0092
3091.00,0.0091
3090.00,0.0091
3089.00,0.0091
3088.00,0.0091
3087.00,0.0092
3086.00,0.0092
3085.00,0.0091
3084.00,0.0091
3083.00,0.0091
3082.00,0.0091
3081.00,0.0091
3080.00,0.0091
3079.00,0.0091
3078.00,0.0091
3077.00,0.0091
3076.00,0.0091
3075.00,0.0090
3074.00,0.0090
3073.00,0.0090
3072.00,0.0090
3071.00,0.0091
3070.00,0.0091
3069.00,0.0090
3068.00,0.0090
3067.00,0.0090
3066.00,0.0090
3065.00,0.0090
3064.00,0.0090
3063.00,0.0090
3062.00,0.0090
3061.00,0.0090
3060.00,0.0090
3059.00,0.0090
3058.00,0.0090
3057.00,0.0089
3056.00,0.0089
3055.00,0.0089
3054.00,0.0089
3053.00,0.0090
3052.00,0.0089
3051.00,0.0089
3050.00,0.0088
3049.00,0.0088
3048.00,0.0088
3047.00,0.0087
3046.00,0.0088
3045.00,0.0088
3044.00,0.0088
3043.00,0.0088
3042.00,0.0088
3041.00,0.0087
3040.00,0.0087
3039.00,0.0087
3038.00,0.0087
3037.00,0.0087
3036.00,0.0087
3035.00,0.0087
3034.00,0.0087
3033.00,0.0088
3032.00,0.0088
3031.00,0.0088
3030.00,0.0087
3029.00,0.0087
3028.00,0.0086
3027.00,0.0086
3026.00,0.0085
3025.00,0.0085
3024.00,0.0085
3023.00,0.0086
3022.00,0.0086
3021.00,0.0086
3020.00,0.0085
3019.00,0.0085
3018.00,0.0084
3017.00,0.0084
3016.00,0.0084
3015.00,0.0084
3014.00,0.0085
3013.00,0.0085
3012.00,0.0085
3011.00,0.0085
3010.00,0.0084
3009.00,0.0084
3008.00,0.0084
3007.00,0.0084
3006.00,0.0084
3005.00,0.0084
3004.00,0.0084
3003.00,0.0083
3002.00,0.0083
3001.00,0.0082
3000.00,0.0082
2999.00,0.0082
2998.00,0.0082
2997.00,0.0082
2996.00,0.0082
2995.00,0.0082
2994.00,0.0082
2993.00,0.0081
2992.00,0.0081
2991.00,0.0080
2990.00,0.0080
2989.00,0.0080
2988.00,0.0080
2987.00,0.0080
2986.00,0.0080
2985.00,0.0080
2984.00,0.0080
2983.00,0.0079
2982.00,0.0078
2981.00,0.0078
2980.00,0.0078
2979.00,0.0078
2978.00,0.0079
2977.00,0.0079
2976.00,0.0079
2975.00,0.0079
2974.00,0.0079
2973.00,0.0078
2972.00,0.0077
2971.00,0.0077
2970.00,0.0076
2969.00,0.0076
2968.00,0.0076
2967.00,0.0076
2966.00,0.0075
2965.00,0.0075
2964.00,0.0075
2963.00,0.0074
2962.00,0.0074
2961.00,0.0074
2960.00,0.0074
2959.00,0.0074
2958.00,0.0074
2957.00,0.0073
2956.00,0.0073
2955.00,0.0072
2954.00,0.0072
2953.00,0.0073
2952.00,0.0073
2951.00,0.0074
2950.00,0.0074
2949.00,0.0074
2948.00,0.0074
2947.00,0.0074
2946.00,0.0074
2945.00,0.0074
2944.00,0.0074
2943.00,0.0073
2942.00,0.0073
2941.00,0.0072
2940.00,0.0071
2939.00,0.0071
2938.00,0.0070
2937.00,0.0070
2936.00,0.0070
2935.00,0.0069
2934.00,0.0069
2933.00,0.0068
2932.00,0.0067
2931.00,0.0067
2930.00,0.0066
2929.00,0.0065
2928.00,0.0064
2927.00,0.0063
2926.00,0.0062
2925.00,0.0061
2924.00,0.0061
2923.00,0.0061
2922.00,0.0061
2921.00,0.0062
2920.00,0.0062
2919.00,0.0062
2918.00,0.0061
2917.00,0.0061
2916.00,0.0062
2915.00,0.0063
2914.00,0.0064
2913.00,0.0065
2912.00,0.0066
2911.00,0.0067
2910.00,0.0068
2909.00,0.0068
2908.00,0.0069
2907.00,0.0069
2906.00,0.0069
2905.00,0.0069
2904.00,0.0069
2903.00,0.0069
2902.00,0.0070
2901.00,0.0070
2900.00,0.0070
2899.00,0.0070
2898.00,0.0070
2897.00,0.0070
2896.00,0.0070
2895.00,0.0070
2894.00,0.0070
2893.00,0.0070
2892.00,0.0070
2891.00,0.0070
2890.00,0.0071
2889.00,0.0071
2888.00,0.0071
2887.00,0.0071
2886.00,0.0071
2885.00,0.0071
2884.00,0.0072
2883.00,0.0072
2882.00,0.0072
2881.00,0.0072
2880.00,0.0072
2879.00,0.0072
2878.00,0.0071
2877.00,0.0071
2876.00,0.0070
2875.00,0.0070
2874.00,0.0069
2873.00,0.0069
2872.00,0.0068
2871.00,0.0068
2870.00,0.0068
2869.00,0.0068
2868.00,0.0068
2867.00,0.0067
2866.00,0.0067
2865.00,0.0066
2864.00,0.0066
2863.00,0.0066
2862.00,0.0066
2861.00,0.0066
2860.00,0.0065
2859.00,0.0065
2858.00,0.0064
2857.00,0.0063
2856.00,0.0063
2855.00,0.0062
2854.00,0.0062
2853.00,0.0062
2852.00,0.0062
2851.00,0.0062
2850.00,0.0062
2849.00,0.0062
2848.00,0.0062
2847.00,0.0063
2846.00,0.0064
2845.00,0.0064
2844.00,0.0065
2843.00,0.0066
2842.00,0.0067
2841.00,0.0067
2840.00,0.0067
2839.00,0.0068
2838.00,0.0068
2837.00,0.0069
2836.00,0.0069
2835.00,0.0069
2834.00,0.0069
2833.00,0.0068
2832.00,0.0068
2831.00,0.0068
2830.00,0.0068
2829.00,0.0068
2828.00,0.0069
2827.00,0.0069
2826.00,0.0069
2825.00,0.0068
2824.00,0.0068
2823.00,0.0068
2822.00,0.0068
2821.00,0.0068
2820.00,0.0068
2819.00,0.0068
2818.00,0.0068
2817.00,0.0068
2816.00,0.0068
2815.00,0.0067
2814.00,0.0067
2813.00,0.0067
2812.00,0.0067
2811.00,0.0067
2810.00,0.0067
2809.00,0.0067
2808.00,0.0067
2807.00,0.0067
2806.00,0.0067
2805.00,0.0067
2804.00,0.0066
2803.00,0.0066
2802.00,0.0066
2801.00,0.0066
2800.00,0.0066
2799.00,0.0066
2798.00,0.0066
2797.00,0.0066
2796.00,0.0066
2795.00,0.0066
2794.00,0.0065
2793.00,0.0065
2792.00,0.0065
2791.00,0.0065
2790.00,0.0066
2789.00,0.0066
2788.00,0.0066
2787.00,0.0066
2786.00,0.0066
2785.00,0.0065
2784.00,0.0065
2783.00,0.0065
2782.00,0.0065
2781.00,0.0065
2780.00,0.0064
2779.00,0.0064
2778.00,0.0064
2777.00,0.0064
2776.00,0.0065
2775.00,0.0065
2774.00,0.0065
2773.00,0.0065
2772.00,0.0064
2771.00,0.0064
2770.00,0.0064
2769.00,0.0064
2768.00,0.0064
2767.00,0.0064
2766.00,0.0064
2765.00,0.0064
2764.00,0.0064
2763.00,0.0064
2762.00,0.0064
2761.00,0.0064
2760.00,0.0064
2759.00,0.0064
2758.00,0.0064
2757.00,0.0063
2756.00,0.0063
2755.00,0.0063
2754.00,0.0063
2753.00,0.0063
2752.00,0.0063
2751.00,0.0063
2750.00,0.0063
2749.00,0.0064
2748.00,0.0064
2747.00,0.0063
2746.00,0.0063
2745.00,0.0063
2744.00,0.0062
2743.00,0.0062
2742.00,0.0062
2741.00,0.0062
2740.00,0.0062
2739.00,0.0062
2738.00,0.0062
2737.00,0.0061
2736.00,0.0061
2735.00,0.0061
2734.00,0.0061
2733.00,0.0061
2732.00,0.0061
2731.00,0.0061
2730.00,0.0061
2729.00,0.0061
2728.00,0.0061
2727.00,0.0061
2726.00,0.0061
2725.00,0.0061
2724.00,0.0061
2723.00,0.0061
2722.00,0.0061
2721.00,0.0061
2720.00,0.0061
2719.00,0.0060
2718.00,0.0060
2717.00,0.0060
2716.00,0.0060
2715.00,0.0060
2714.00,0.0060
2713.00,0.0061
2712.00,0.0060
2711.00,0.0060
2710.00,0.0060
2709.00,0.0060
2708.00,0.0060
2707.00,0.0060
2706.00,0.0060
2705.00,0.0060
2704.00,0.0060
2703.00,0.0060
2702.00,0.0060
2701.00,0.0060
2700.00,0.0060
2699.00,0.0059
2698.00,0.0059
2697.00,0.0059
2696.00,0.0059
2695.00,0.0060
2694.00,0.0060
2693.00,0.0060
2692.00,0.0060
2691.00,0.0060
2690.00,0.0060
2689.00,0.0060
2688.00,0.0060
2687.00,0.0060
2686.00,0.0060
2685.00,0.0059
2684.00,0.0059
2683.00,0.0059
2682.00,0.0059
2681.00,0.0059
2680.00,0.0059
2679.00,0.0059
2678.00,0.0059
2677.00,0.0059
2676.00,0.0059
2675.00,0.0059
2674.00,0.0059
2673.00,0.0059
2672.00,0.0058
2671.00,0.0058
2670.00,0.0058
2669.00,0.0057
2668.00,0.0058
2667.00,0.0058
2666.00,0.0058
2665.00,0.0058
2664.00,0.0058
2663.00,0.0058
2662.00,0.0058
2661.00,0.0058
2660.00,0.0058
2659.00,0.0058
2658.00,0.0058
2657.00,0.0058
2656.00,0.0058
2655.00,0.0058
2654.00,0.0058
2653.00,0.0058
2652.00,0.0058
2651.00,0.0058
2650.00,0.0058
2649.00,0.0058
2648.00,0.0059
2647.00,0.0059
2646.00,0.0059
2645.00,0.0059
2644.00,0.0059
2643.00,0.0059
2642.00,0.0059
2641.00,0.0059
2640.00,0.0059
2639.00,0.0059
2638.00,0.0059
2637.00,0.0059
2636.00,0.0059
2635.00,0.0059
2634.00,0.0058
2633.00,0.0058
2632.00,0.0058
2631.00,0.0058
2630.00,0.0058
2629.00,0.0059
2628.00,0.0059
2627.00,0.0059
2626.00,0.0059
2625.00,0.0059
2624.00,0.0059
2623.00,0.0059
2622.00,0.0059
2621.00,0.0058
2620.00,0.0058
2619.00,0.0058
2618.00,0.0058
2617.00,0.0058
2616.00,0.0059
2615.00,0.0059
2614.00,0.0059
2613.00,0.0059
2612.00,0.0059
2611.00,0.0058
2610.00,0.0058
2609.00,0.0059
2608.00,0.0059
2607.00,0.0059
2606.00,0.0059
2605.00,0.0059
2604.00,0.0059
2603.00,0.0059
2602.00,0.0059
2601.00,0.0059
2600.00,0.0059
2599.00,0.0059
2598.00,0.0059
2597.00,0.0059
2596.00,0.0059
2595.00,0.0059
2594.00,0.0058
2593.00,0.0059
2592.00,0.0059
2591.00,0.0060
2590.00,0.0060
2589.00,0.0060
2588.00,0.0059
2587.00,0.0058
2586.00,0.0057
2585.00,0.0056
2584.00,0.0057
2583.00,0.0058
2582.00,0.0058
2581.00,0.0058
2580.00,0.0058
2579.00,0.0058
2578.00,0.0058
2577.00,0.0058
2576.00,0.0058
2575.00,0.0058
2574.00,0.0058
2573.00,0.0058
2572.00,0.0058
2571.00,0.0058
2570.00,0.0058
2569.00,0.0058
2568.00,0.0058
2567.00,0.0058
2566.00,0.0059
2565.00,0.0059
2564.00,0.0059
2563.00,0.0059
2562.00,0.0059
2561.00,0.0058
2560.00,0.0057
2559.00,0.0057
2558.00,0.0058
2557.00,0.0058
2556.00,0.0059
2555.00,0.0060
2554.00,0.0060
2553.00,0.0059
2552.00,0.0059
2551.00,0.0059
2550.00,0.0059
2549.00,0.0058
2548.00,0.0058
2547.00,0.0058
2546.00,0.0057
2545.00,0.0057
2544.00,0.0056
2543.00,0.0057
2542.00,0.0057
2541.00,0.0058
2540.00,0.0059
2539.00,0.0059
2538.00,0.0059
2537.00,0.0059
2536.00,0.0059
2535.00,0.0059
2534.00,0.0059
2533.00,0.0058
2532.00,0.0058
2531.00,0.0058
2530.00,0.0058
2529.00,0.0058
2528.00,0.0058
2527.00,0.0058
2526.00,0.0058
2525.00,0.0059
2524.00,0.0059
2523.00,0.0059
2522.00,0.0058
2521.00,0.0058
2520.00,0.0058
2519.00,0.0058
2518.00,0.0057
2517.00,0.0057
2516.00,0.0057
2515.00,0.0057
2514.00,0.0057
2513.00,0.0057
2512.00,0.0058
2511.00,0.0057
2510.00,0.0057
2509.00,0.0056
2508.00,0.0056
2507.00,0.0056
2506.00,0.0056
2505.00,0.0056
2504.00,0.0056
2503.00,0.0056
2502.00,0.0056
2501.00,0.0056
2500.00,0.0056
2499.00,0.0057
2498.00,0.0057
2497.00,0.0056
2496.00,0.0056
2495.00,0.0055
2494.00,0.0055
2493.00,0.0055
2492.00,0.0055
2491.00,0.0056
2490.00,0.0056
2489.00,0.0057
2488.00,0.0057
2487.00,0.0056
2486.00,0.0056
2485.00,0.0055
2484.00,0.0055
2483.00,0.0056
2482.00,0.0056
2481.00,0.0057
2480.00,0.0057
2479.00,0.0057
2478.00,0.0056
2477.00,0.0056
2476.00,0.0055
2475.00,0.0055
2474.00,0.0055
2473.00,0.0055
2472.00,0.0056
2471.00,0.0056
2470.00,0.0056
2469.00,0.0056
2468.00,0.0055
2467.00,0.0054
2466.00,0.0054
2465.00,0.0054
2464.00,0.0055
2463.00,0.0055
2462.00,0.0055
2461.00,0.0055
2460.00,0.0055
2459.00,0.0055
2458.00,0.0055
2457.00,0.0055
2456.00,0.0055
2455.00,0.0054
2454.00,0.0053
2453.00,0.0053
2452.00,0.0054
2451.00,0.0055
2450.00,0.0055
2449.00,0.0055
2448.00,0.0055
2447.00,0.0055
2446.00,0.0054
2445.00,0.0054
2444.00,0.0054
2443.00,0.0054
2442.00,0.0054
2441.00,0.0054
2440.00,0.0054
2439.00,0.0054
2438.00,0.0053
2437.00,0.0053
2436.00,0.0053
2435.00,0.0053
2434.00,0.0053
2433.00,0.0053
2432.00,0.0053
2431.00,0.0054
2430.00,0.0054
2429.00,0.0054
2428.00,0.0053
2427.00,0.0053
2426.00,0.0054
2425.00,0.0054
2424.00,0.0053
2423.00,0.0053
2422.00,0.0053
2421.00,0.0053
2420.00,0.0053
2419.00,0.0053
2418.00,0.0053
2417.00,0.0053
2416.00,0.0053
2415.00,0.0053
2414.00,0.0053
2413.00,0.0053
2412.00,0.0053
2411.00,0.0053
2410.00,0.0052
2409.00,0.0052
2408.00,0.0052
2407.00,0.0053
2406.00,0.0053
2405.00,0.0053
2404.00,0.0053
2403.00,0.0053
2402.00,0.0052
2401.00,0.0052
2400.00,0.0051
2399.00,0.0051
2398.00,0.0051
2397.00,0.0051
2396.00,0.0051
2395.00,0.0051
2394.00,0.0051
2393.00,0.0051
2392.00,0.0051
2391.00,0.0051
2390.00,0.0051
2389.00,0.0050
2388.00,0.0050
2387.00,0.0049
2386.00,0.0048
2385.00,0.0048
2384.00,0.0047
2383.00,0.0046
2382.00,0.0045
2381.00,0.0044
2380.00,0.0044
2379.00,0.0043
2378.00,0.0043
2377.00,0.0044
2376.00,0.0045
2375.00,0.0046
2374.00,0.0047
2373.00,0.0048
2372.00,0.0047
2371.00,0.0046
2370.00,0.0045
2369.00,0.0044
2368.00,0.0045
2367.00,0.0047
2366.00,0.0047
2365.00,0.0046
2364.00,0.0045
2363.00,0.0044
2362.00,0.0045
2361.00,0.0046
2360.00,0.0048
2359.00,0.0049
2358.00,0.0050
2357.00,0.0051
2356.00,0.0052
2355.00,0.0053
2354.00,0.0053
2353.00,0.0051
2352.00,0.0049
2351.00,0.0047
2350.00,0.0046
2349.00,0.0044
2348.00,0.0042
2347.00,0.0040
2346.00,0.0040
2345.00,0.0042
2344.00,0.0044
2343.00,0.0046
2342.00,0.0046
2341.00,0.0046
2340.00,0.0045
2339.00,0.0046
2338.00,0.0047
2337.00,0.0048
2336.00,0.0048
2335.00,0.0049
2334.00,0.0049
2333.00,0.0049
2332.00,0.0050
2331.00,0.0050
2330.00,0.0050
2329.00,0.0051
2328.00,0.0052
2327.00,0.0052
2326.00,0.0052
2325.00,0.0052
2324.00,0.0052
2323.00,0.0051
2322.00,0.0051
2321.00,0.0050
2320.00,0.0050
2319.00,0.0050
2318.00,0.0050
2317.00,0.0050
2316.00,0.0049
2315.00,0.0048
2314.00,0.0048
2313.00,0.0048
2312.00,0.0048
2311.00,0.0049
2310.00,0.0049
2309.00,0.0049
2308.00,0.0048
2307.00,0.0048
2306.00,0.0047
2305.00,0.0047
2304.00,0.0047
2303.00,0.0047
2302.00,0.0047
2301.00,0.0047
2300.00,0.0047
2299.00,0.0047
2298.00,0.0046
2297.00,0.0046
2296.00,0.0045
2295.00,0.0045
2294.00,0.0045
2293.00,0.0045
2292.00,0.0046
2291.00,0.0046
2290.00,0.0046
2289.00,0.0045
2288.00,0.0043
2287.00,0.0043
2286.00,0.0043
2285.00,0.0044
2284.00,0.0045
2283.00,0.0046
2282.00,0.0046
2281.00,0.0046
2280.00,0.0045
2279.00,0.0045
2278.00,0.0044
2277.00,0.0044
2276.00,0.0044
2275.00,0.0044
2274.00,0.0045
2273.00,0.0045
2272.00,0.0045
2271.00,0.0044
2270.00,0.0044
2269.00,0.0043
2268.00,0.0043
2267.00,0.0044
2266.00,0.0044
2265.00,0.0044
2264.00,0.0043
2263.00,0.0043
2262.00,0.0043
2261.00,0.0043
2260.00,0.0044
2259.00,0.0044
2258.00,0.0044
2257.00,0.0044
2256.00,0.0044
2255.00,0.0043
2254.00,0.0043
2253.00,0.0043
2252.00,0.0044
2251.00,0.0044
2250.00,0.0043
2249.00,0.0043
2248.00,0.0042
2247.00,0.0041
2246.00,0.0040
2245.00,0.0041
2244.00,0.0042
2243.00,0.0043
2242.00,0.0044
2241.00,0.0043
2240.00,0.0042
2239.00,0.0040
2238.00,0.0039
2237.00,0.0039
2236.00,0.0040
2235.00,0.0042
2234.00,0.0043
2233.00,0.0043
2232.00,0.0043
2231.00,0.0043
2230.00,0.0043
2229.00,0.0043
2228.00,0.0044
2227.00,0.0045
2226.00,0.0046
2225.00,0.0046
2224.00,0.0044
2223.00,0.0042
2222.00,0.0041
2221.00,0.0041
2220.00,0.0041
2219.00,0.0042
2218.00,0.0043
2217.00,0.0043
2216.00,0.0043
2215.00,0.0043
2214.00,0.0043
2213.00,0.0042
2212.00,0.0042
2211.00,0.0042
2210.00,0.0042
2209.00,0.0041
2208.00,0.0041
2207.00,0.0039
2206.00,0.0039
2205.00,0.0039
2204.00,0.0041
2203.00,0.0043
2202.00,0.0045
2201.00,0.0044
2200.00,0.0043
2199.00,0.0042
2198.00,0.0041
2197.00,0.0041
2196.00,0.0042
2195.00,0.0042
2194.00,0.0042
2193.00,0.0041
2192.00,0.0040
2191.00,0.0039
2190.00,0.0039
2189.00,0.0039
2188.00,0.0040
2187.00,0.0041
2186.00,0.0042
2185.00,0.0042
2184.00,0.0042
2183.00,0.0041
2182.00,0.0042
2181.00,0.0042
2180.00,0.0043
2179.00,0.0044
2178.00,0.0044
2177.00,0.0043
2176.00,0.0042
2175.00,0.0042
2174.00,0.0041
2173.00,0.0040
2172.00,0.0039
2171.00,0.0039
2170.00,0.0038
2169.00,0.0037
2168.00,0.0036
2167.00,0.0034
2166.00,0.0033
2165.00,0.0033
2164.00,0.0035
2163.00,0.0037
2162.00,0.0038
2161.00,0.0039
2160.00,0.0039
2159.00,0.0038
2158.00,0.0037
2157.00,0.0037
2156.00,0.0038
2155.00,0.0039
2154.00,0.0040
2153.00,0.0041
2152.00,0.0041
2151.00,0.0040
2150.00,0.0039
2149.00,0.0038
2148.00,0.0037
2147.00,0.0037
2146.00,0.0038
2145.00,0.0039
2144.00,0.0039
2143.00,0.0039
2142.00,0.0038
2141.00,0.0038
2140.00,0.0037
2139.00,0.0037
2138.00,0.0038
2137.00,0.0038
2136.00,0.0039
2135.00,0.0038
2134.00,0.0038
2133.00,0.0037
2132.00,0.0036
2131.00,0.0036
2130.00,0.0036
2129.00,0.0037
2128.00,0.0037
2127.00,0.0036
2126.00,0.0034
2125.00,0.0033
2124.00,0.0032
2123.00,0.0032
2122.00,0.0034
2121.00,0.0036
2120.00,0.0039
2119.00,0.0041
2118.00,0.0042
2117.00,0.0041
2116.00,0.0039
2115.00,0.0038
2114.00,0.0037
2113.00,0.0037
2112.00,0.0036
2111.00,0.0035
2110.00,0.0035
2109.00,0.0035
2108.00,0.0035
2107.00,0.0034
2106.00,0.0034
2105.00,0.0034
2104.00,0.0035
2103.00,0.0036
2102.00,0.0036
2101.00,0.0035
2100.00,0.0034
2099.00,0.0033
2098.00,0.0033
2097.00,0.0035
2096.00,0.0036
2095.00,0.0036
2094.00,0.0037
2093.00,0.0036
2092.00,0.0036
2091.00,0.0036
2090.00,0.0037
2089.00,0.0037
2088.00,0.0037
2087.00,0.0036
2086.00,0.0036
2085.00,0.0035
2084.00,0.0035
2083.00,0.0034
2082.00,0.0034
2081.00,0.0034
2080.00,0.0035
2079.00,0.0035
2078.00,0.0036
2077.00,0.0037
2076.00,0.0037
2075.00,0.0037
2074.00,0.0036
2073.00,0.0035
2072.00,0.0035
2071.00,0.0035
2070.00,0.0036
2069.00,0.0036
2068.00,0.0036
2067.00,0.0036
2066.00,0.0037
2065.00,0.0038
2064.00,0.0038
2063.00,0.0039
2062.00,0.0038
2061.00,0.0038
2060.00,0.0036
2059.00,0.0034
2058.00,0.0033
2057.00,0.0034
2056.00,0.0037
2055.00,0.0039
2054.00,0.0039
2053.00,0.0038
2052.00,0.0036
2051.00,0.0034
2050.00,0.0034
2049.00,0.0035
2048.00,0.0037
2047.00,0.0039
2046.00,0.0040
2045.00,0.0040
2044.00,0.0037
2043.00,0.0034
2042.00,0.0033
2041.00,0.0033
2040.00,0.0036
2039.00,0.0039
2038.00,0.0042
2037.00,0.0042
2036.00,0.0040
2035.00,0.0036
2034.00,0.0033
2033.00,0.0031
2032.00,0.0031
2031.00,0.0033
2030.00,0.0036
2029.00,0.0038
2028.00,0.0037
2027.00,0.0035
2026.00,0.0033
2025.00,0.0032
2024.00,0.0032
2023.00,0.0033
2022.00,0.0033
2021.00,0.0034
2020.00,0.0034
2019.00,0.0032
2018.00,0.0030
2017.00,0.0029
2016.00,0.0030
2015.00,0.0033
2014.00,0.0036
2013.00,0.0037
2012.00,0.0036
2011.00,0.0033
2010.00,0.0030
2009.00,0.0028
2008.00,0.0027
2007.00,0.0027
2006.00,0.0028
2005.00,0.0030
2004.00,0.0032
2003.00,0.0034
2002.00,0.0034
2001.00,0.0034
2000.00,0.0033
1999.00,0.0034
1998.00,0.0036
1997.00,0.0038
1996.00,0.0038
1995.00,0.0037
1994.00,0.0036
1993.00,0.0034
1992.00,0.0032
1991.00,0.0030
1990.00,0.0029
1989.00,0.0030
1988.00,0.0031
1987.00,0.0031
1986.00,0.0031
1985.00,0.0031
1984.00,0.0031
1983.00,0.0032
1982.00,0.0034
1981.00,0.0036
1980.00,0.0036
1979.00,0.0035
1978.00,0.0034
1977.00,0.0034
1976.00,0.0034
1975.00,0.0034
1974.00,0.0034
1973.00,0.0035
1972.00,0.0036
1971.00,0.0036
1970.00,0.0037
1969.00,0.0036
1968.00,0.0035
1967.00,0.0033
1966.00,0.0030
1965.00,0.0030
1964.00,0.0031
1963.00,0.0033
1962.00,0.0034
1961.00,0.0034
1960.00,0.0032
1959.00,0.0029
1958.00,0.0027
1957.00,0.0027
1956.00,0.0028
1955.00,0.0028
1954.00,0.0028
1953.00,0.0027
1952.00,0.0026
1951.00,0.0025
1950.00,0.0024
1949.00,0.0025
1948.00,0.0027
1947.00,0.0029
1946.00,0.0030
1945.00,0.0030
1944.00,0.0029
1943.00,0.0027
1942.00,0.0026
1941.00,0.0027
1940.00,0.0028
1939.00,0.0029
1938.00,0.0029
1937.00,0.0029
1936.00,0.0028
1935.00,0.0027
1934.00,0.0026
1933.00,0.0027
1932.00,0.0028
1931.00,0.0029
1930.00,0.0029
1929.00,0.0028
1928.00,0.0027
1927.00,0.0025
1926.00,0.0025
1925.00,0.0027
1924.00,0.0028
1923.00,0.0029
1922.00,0.0028
1921.00,0.0028
1920.00,0.0027
1919.00,0.0026
1918.00,0.0025
1917.00,0.0024
1916.00,0.0023
1915.00,0.0024
1914.00,0.0024
1913.00,0.0025
1912.00,0.0025
1911.00,0.0024
1910.00,0.0023
1909.00,0.0023
1908.00,0.0023
1907.00,0.0024
1906.00,0.0024
1905.00,0.0025
1904.00,0.0024
1903.00,0.0023
1902.00,0.0021
1901.00,0.0020
1900.00,0.0020
1899.00,0.0019
1898.00,0.0020
1897.00,0.0020
1896.00,0.0020
1895.00,0.0020
1894.00,0.0019
1893.00,0.0019
1892.00,0.0019
1891.00,0.0020
1890.00,0.0020
1889.00,0.0020
1888.00,0.0020
1887.00,0.0020
1886.00,0.0019
1885.00,0.0019
1884.00,0.0019
1883.00,0.0019
1882.00,0.0019
1881.00,0.0019
1880.00,0.0019
1879.00,0.0019
1878.00,0.0018
1877.00,0.0017
1876.00,0.0017
1875.00,0.0018
1874.00,0.0018
1873.00,0.0019
1872.00,0.0021
1871.00,0.0021
1870.00,0.0019
1869.00,0.0017
1868.00,0.0016
1867.00,0.0015
1866.00,0.0016
1865.00,0.0017
1864.00,0.0018
1863.00,0.0017
1862.00,0.0016
1861.00,0.0015
1860.00,0.0015
1859.00,0.0015
1858.00,0.0015
1857.00,0.0016
1856.00,0.0017
1855.00,0.0017
1854.00,0.0016
1853.00,0.0015
1852.00,0.0014
1851.00,0.0014
1850.00,0.0014
1849.00,0.0015
1848.00,0.0015
1847.00,0.0016
1846.00,0.0016
1845.00,0.0015
1844.00,0.0012
1843.00,0.0011
1842.00,0.0011
1841.00,0.0012
1840.00,0.0013
1839.00,0.0014
1838.00,0.0013
1837.00,0.0013
1836.00,0.0012
1835.00,0.0012
1834.00,0.0012
1833.00,0.0013
1832.00,0.0015
1831.00,0.0015
1830.00,0.0014
1829.00,0.0013
1828.00,0.0012
1827.00,0.0012
1826.00,0.0013
1825.00,0.0012
1824.00,0.0012
1823.00,0.0011
1822.00,0.0012
1821.00,0.0012
1820.00,0.0012
1819.00,0.0011
1818.00,0.0010
1817.00,0.0011
1816.00,0.0011
1815.00,0.0011
1814.00,0.0011
1813.00,0.0011
1812.00,0.0011
1811.00,0.0011
1810.00,0.0010
1809.00,0.0010
1808.00,0.0010
1807.00,0.0011
1806.00,0.0011
1805.00,0.0012
1804.00,0.0013
1803.00,0.0014
1802.00,0.0014
1801.00,0.0013
1800.00,0.0013
1799.00,0.0013
1798.00,0.0013
1797.00,0.0014
1796.00,0.0014
1795.00,0.0015
1794.00,0.0016
1793.00,0.0016
1792.00,0.0016
1791.00,0.0016
1790.00,0.0017
1789.00,0.0017
1788.00,0.0018
1787.00,0.0017
1786.00,0.0017
1785.00,0.0018
1784.00,0.0020
1783.00,0.0021
1782.00,0.0023
1781.00,0.0023
1780.00,0.0023
1779.00,0.0024
1778.00,0.0025
1777.00,0.0026
1776.00,0.0028
1775.00,0.0030
1774.00,0.0031
1773.00,0.0031
1772.00,0.0030
1771.00,0.0029
1770.00,0.0030
1769.00,0.0031
1768.00,0.0032
1767.00,0.0033
1766.00,0.0034
1765.00,0.0035
1764.00,0.0037
1763.00,0.0037
1762.00,0.0037
1761.00,0.0037
1760.00,0.0038
1759.00,0.0039
1758.00,0.0040
1757.00,0.0040
1756.00,0.0040
1755.00,0.0040
1754.00,0.0040
1753.00,0.0040
1752.00,0.0040
1751.00,0.0041
1750.00,0.0042
1749.00,0.0044
1748.00,0.0045
1747.00,0.0046
1746.00,0.0047
1745.00,0.0048
1744.00,0.0049
1743.00,0.0051
1742.00,0.0052
1741.00,0.0052
1740.00,0.0052
1739.00,0.0052
1738.00,0.0052
1737.00,0.0054
1736.00,0.0056
1735.00,0.0056
1734.00,0.0057
1733.00,0.0059
1732.00,0.0061
1731.00,0.0064
1730.00,0.0067
1729.00,0.0069
1728.00,0.0070
1727.00,0.0071
1726.00,0.0073
1725.00,0.0075
1724.00,0.0077
1723.00,0.0078
1722.00,0.0079
1721.00,0.0080
1720.00,0.0082
1719.00,0.0082
1718.00,0.0081
1717.00,0.0083
1716.00,0.0086
1715.00,0.0088
1714.00,0.0090
1713.00,0.0090
1712.00,0.0091
1711.00,0.0091
1710.00,0.0092
1709.00,0.0093
1708.00,0.0095
1707.00,0.0097
1706.00,0.0098
1705.00,0.0099
1704.00,0.0099
1703.00,0.0100
1702.00,0.0101
1701.00,0.0100
1700.00,0.0099
1699.00,0.0098
1698.00,0.0099
1697.00,0.0101
1696.00,0.0102
1695.00,0.0100
1694.00,0.0099
1693.00,0.0100
1692.00,0.0102
1691.00,0.0103
1690.00,0.0103
1689.00,0.0103
1688.00,0.0103
1687.00,0.0103
1686.00,0.0103
1685.00,0.0104
1684.00,0.0105
1683.00,0.0106
1682.00,0.0106
1681.00,0.0107
1680.00,0.0106
1679.00,0.0106
1678.00,0.0105
1677.00,0.0105
1676.00,0.0105
1675.00,0.0106
1674.00,0.0107
1673.00,0.0108
1672.00,0.0109
1671.00,0.0109
1670.00,0.0110
1669.00,0.0111
1668.00,0.0111
1667.00,0.0112
1666.00,0.0112
1665.00,0.0112
1664.00,0.0112
1663.00,0.0112
1662.00,0.0113
1661.00,0.0113
1660.00,0.0114
1659.00,0.0115
1658.00,0.0115
1657.00,0.0115
1656.00,0.0116
1655.00,0.0117
1654.00,0.0119
1653.00,0.0121
1652.00,0.0120
1651.00,0.0119
1650.00,0.0120
1649.00,0.0122
1648.00,0.0122
1647.00,0.0123
1646.00,0.0124
1645.00,0.0125
1644.00,0.0126
1643.00,0.0127
1642.00,0.0128
1641.00,0.0129
1640.00,0.0129
1639.00,0.0129
1638.00,0.0130
1637.00,0.0131
1636.00,0.0133
1635.00,0.0136
1634.00,0.0137
1633.00,0.0137
1632.00,0.0138
1631.00,0.0139
1630.00,0.0140
1629.00,0.0142
1628.00,0.0143
1627.00,0.0145
1626.00,0.0146
1625.00,0.0147
1624.00,0.0148
1623.00,0.0149
1622.00,0.0150
1621.00,0.0151
1620.00,0.0151
1619.00,0.0151
1618.00,0.0152
1617.00,0.0154
1616.00,0.0155
1615.00,0.0156
1614.00,0.0157
1613.00,0.0158
1612.00,0.0158
1611.00,0.0158
1610.00,0.0159
1609.00,0.0161
1608.00,0.0162
1607.00,0.0164
1606.00,0.0165
1605.00,0.0166
1604.00,0.0166
1603.00,0.0167
1602.00,0.0168
1601.00,0.0169
1600.00,0.0169
1599.00,0.0169
1598.00,0.0169
1597.00,0.0170
1596.00,0.0171
1595.00,0.0171
1594.00,0.0172
1593.00,0.0172
1592.00,0.0172
1591.00,0.0172
1590.00,0.0173
1589.00,0.0174
1588.00,0.0174
1587.00,0.0175
1586.00,0.0175
1585.00,0.0175
1584.00,0.0175
1583.00,0.0174
1582.00,0.0174
1581.00,0.0174
1580.00,0.0174
1579.00,0.0174
1578.00,0.0175
1577.00,0.0175
1576.00,0.0175
1575.00,0.0175
1574.00,0.0175
1573.00,0.0174
1572.00,0.0174
1571.00,0.0174
1570.00,0.0174
1569.00,0.0175
1568.00,0.0175
1567.00,0.0174
1566.00,0.0174
1565.00,0.0172
1564.00,0.0172
1563.00,0.0171
1562.00,0.0171
1561.00,0.0171
1560.00,0.0170
1559.00,0.0173
1558.00,0.0174
1557.00,0.0170
1556.00,0.0165
1555.00,0.0164
1554.00,0.0163
1553.00,0.0162
1552.00,0.0162
1551.00,0.0163
1550.00,0.0163
1549.00,0.0161
1548.00,0.0159
1547.00,0.0157
1546.00,0.0155
1545.00,0.0154
1544.00,0.0153
1543.00,0.0153
1542.00,0.0150
1541.00,0.0148
1540.00,0.0150
1539.00,0.0150
1538.00,0.0148
1537.00,0.0147
1536.00,0.0146
1535.00,0.0146
1534.00,0.0147
1533.00,0.0147
1532.00,0.0146
1531.00,0.0144
1530.00,0.0143
1529.00,0.0141
1528.00,0.0140
1527.00,0.0139
1526.00,0.0138
1525.00,0.0136
1524.00,0.0135
1523.00,0.0134
1522.00,0.0133
1521.00,0.0134
1520.00,0.0134
1519.00,0.0135
1518.00,0.0135
1517.00,0.0135
1516.00,0.0133
1515.00,0.0130
1514.00,0.0128
1513.00,0.0127
1512.00,0.0127
1511.00,0.0127
1510.00,0.0128
1509.00,0.0129
1508.00,0.0129
1507.00,0.0129
1506.00,0.0127
1505.00,0.0123
1504.00,0.0121
1503.00,0.0121
1502.00,0.0120
1501.00,0.0119
1500.00,0.0118
1499.00,0.0117
1498.00,0.0116
1497.00,0.0116
1496.00,0.0117
1495.00,0.0119
1494.00,0.0119
1493.00,0.0120
1492.00,0.0120
1491.00,0.0121
1490.00,0.0122
1489.00,0.0124
1488.00,0.0124
1487.00,0.0124
1486.00,0.0123
1485.00,0.0122
1484.00,0.0121
1483.00,0.0121
1482.00,0.0121
1481.00,0.0122
1480.00,0.0123
1479.00,0.0123
1478.00,0.0124
1477.00,0.0124
1476.00,0.0124
1475.00,0.0123
1474.00,0.0122
1473.00,0.0121
1472.00,0.0122
1471.00,0.0123
1470.00,0.0124
1469.00,0.0124
1468.00,0.0125
1467.00,0.0125
1466.00,0.0125
1465.00,0.0126
1464.00,0.0127
1463.00,0.0128
1462.00,0.0128
1461.00,0.0129
1460.00,0.0129
1459.00,0.0128
1458.00,0.0127
1457.00,0.0129
1456.00,0.0131
1455.00,0.0133
1454.00,0.0134
1453.00,0.0135
1452.00,0.0136
1451.00,0.0137
1450.00,0.0137
1449.00,0.0138
1448.00,0.0140
1447.00,0.0141
1446.00,0.0141
1445.00,0.0141
1444.00,0.0141
1443.00,0.0142
1442.00,0.0142
1441.00,0.0141
1440.00,0.0141
1439.00,0.0141
1438.00,0.0140
1437.00,0.0141
1436.00,0.0143
1435.00,0.0145
1434.00,0.0146
1433.00,0.0146
1432.00,0.0146
1431.00,0.0147
1430.00,0.0148
1429.00,0.0148
1428.00,0.0149
1427.00,0.0148
1426.00,0.0148
1425.00,0.0148
1424.00,0.0148
1423.00,0.0148
1422.00,0.0148
1421.00,0.0148
1420.00,0.0147
1419.00,0.0149
1418.00,0.0151
1417.00,0.0152
1416.00,0.0152
1415.00,0.0152
1414.00,0.0152
1413.00,0.0151
1412.00,0.0152
1411.00,0.0152
1410.00,0.0152
1409.00,0.0152
1408.00,0.0152
1407.00,0.0153
1406.00,0.0153
1405.00,0.0154
1404.00,0.0154
1403.00,0.0155
1402.00,0.0155
1401.00,0.0154
1400.00,0.0154
1399.00,0.0155
1398.00,0.0156
1397.00,0.0157
1396.00,0.0158
1395.00,0.0158
1394.00,0.0158
1393.00,0.0157
1392.00,0.0156
1391.00,0.0156
1390.00,0.0157
1389.00,0.0157
1388.00,0.0158
1387.00,0.0160
1386.00,0.0161
1385.00,0.0161
1384.00,0.0161
1383.00,0.0161
1382.00,0.0161
1381.00,0.0161
1380.00,0.0161
1379.00,0.0161
1378.00,0.0161
1377.00,0.0161
1376.00,0.0162
1375.00,0.0163
1374.00,0.0163
1373.00,0.0163
1372.00,0.0163
1371.00,0.0163
1370.00,0.0163
1369.00,0.0163
1368.00,0.0163
1367.00,0.0162
1366.00,0.0162
1365.00,0.0161
1364.00,0.0161
1363.00,0.0162
1362.00,0.0163
1361.00,0.0163
1360.00,0.0163
1359.00,0.0162
1358.00,0.0161
1357.00,0.0161
1356.00,0.0160
1355.00,0.0160
1354.00,0.0160
1353.00,0.0159
1352.00,0.0159
1351.00,0.0158
1350.00,0.0158
1349.00,0.0157
1348.00,0.0157
1347.00,0.0157
1346.00,0.0157
1345.00,0.0156
1344.00,0.0156
1343.00,0.0156
1342.00,0.0156
1341.00,0.0156
1340.00,0.0157
1339.00,0.0157
1338.00,0.0157
1337.00,0.0156
1336.00,0.0155
1335.00,0.0154
1334.00,0.0154
1333.00,0.0153
1332.00,0.0153
1331.00,0.0154
1330.00,0.0153
1329.00,0.0153
1328.00,0.0152
1327.00,0.0151
1326.00,0.0151
1325.00,0.0151
1324.00,0.0151
1323.00,0.0151
1322.00,0.0151
1321.00,0.0151
1320.00,0.0150
1319.00,0.0150
1318.00,0.0150
1317.00,0.0151
1316.00,0.0152
1315.00,0.0153
1314.00,0.0153
1313.00,0.0152
1312.00,0.0151
1311.00,0.0151
1310.00,0.0150
1309.00,0.0150
1308.00,0.0150
1307.00,0.0150
1306.00,0.0150
1305.00,0.0150
1304.00,0.0150
1303.00,0.0150
1302.00,0.0150
1301.00,0.0151
1300.00,0.0151
1299.00,0.0152
1298.00,0.0152
1297.00,0.0152
1296.00,0.0151
1295.00,0.0151
1294.00,0.0151
1293.00,0.0151
1292.00,0.0152
1291.00,0.0153
1290.00,0.0153
1289.00,0.0154
1288.00,0.0154
1287.00,0.0154
1286.00,0.0154
1285.00,0.0153
1284.00,0.0153
1283.00,0.0153
1282.00,0.0153
1281.00,0.0154
1280.00,0.0155
1279.00,0.0155
1278.00,0.0155
1277.00,0.0154
1276.00,0.0155
1275.00,0.0155
1274.00,0.0156
1273.00,0.0156
1272.00,0.0157
1271.00,0.0156
1270.00,0.0154
1269.00,0.0153
1268.00,0.0153
1267.00,0.0153
1266.00,0.0154
1265.00,0.0154
1264.00,0.0153
1263.00,0.0152
1262.00,0.0151
1261.00,0.0151
1260.00,0.0151
1259.00,0.0152
1258.00,0.0152
1257.00,0.0153
1256.00,0.0154
1255.00,0.0155
1254.00,0.0155
1253.00,0.0155
1252.00,0.0155
1251.00,0.0156
1250.00,0.0157
1249.00,0.0158
1248.00,0.0158
1247.00,0.0158
1246.00,0.0157
1245.00,0.0157
1244.00,0.0156
1243.00,0.0156
1242.00,0.0156
1241.00,0.0157
1240.00,0.0157
1239.00,0.0157
1238.00,0.0157
1237.00,0.0157
1236.00,0.0156
1235.00,0.0156
1234.00,0.0156
1233.00,0.0156
1232.00,0.0156
1231.00,0.0156
1230.00,0.0156
1229.00,0.0156
1228.00,0.0155
1227.00,0.0154
1226.00,0.0154
1225.00,0.0155
1224.00,0.0156
1223.00,0.0157
1222.00,0.0156
1221.00,0.0155
1220.00,0.0154
1219.00,0.0153
1218.00,0.0153
1217.00,0.0154
1216.00,0.0154
1215.00,0.0154
1214.00,0.0154
1213.00,0.0153
1212.00,0.0152
1211.00,0.0152
1210.00,0.0152
1209.00,0.0152
1208.00,0.0152
1207.00,0.0152
1206.00,0.0152
1205.00,0.0151
1204.00,0.0150
1203.00,0.0149
1202.00,0.0149
1201.00,0.0150
1200.00,0.0150
1199.00,0.0150
1198.00,0.0150
1197.00,0.0149
1196.00,0.0148
1195.00,0.0148
1194.00,0.0147
1193.00,0.0147
1192.00,0.0148
1191.00,0.0148
1190.00,0.0148
1189.00,0.0148
1188.00,0.0147
1187.00,0.0146
1186.00,0.0146
1185.00,0.0146
1184.00,0.0146
1183.00,0.0147
1182.00,0.0146
1181.00,0.0146
1180.00,0.0145
1179.00,0.0145
1178.00,0.0145
1177.00,0.0145
1176.00,0.0146
1175.00,0.0146
1174.00,0.0146
1173.00,0.0145
1172.00,0.0143
1171.00,0.0142
1170.00,0.0142
1169.00,0.0142
1168.00,0.0144
1167.00,0.0145
1166.00,0.0146
1165.00,0.0145
1164.00,0.0143
1163.00,0.0142
1162.00,0.0142
1161.00,0.0142
1160.00,0.0142
1159.00,0.0143
1158.00,0.0143
1157.00,0.0142
1156.00,0.0141
1155.00,0.0140
1154.00,0.0140
1153.00,0.0141
1152.00,0.0142
1151.00,0.0143
1150.00,0.0143
1149.00,0.0143
1148.00,0.0142
1147.00,0.0141
1146.00,0.0140
1145.00,0.0140
1144.00,0.0141
1143.00,0.0141
1142.00,0.0140
1141.00,0.0139
1140.00,0.0138
1139.00,0.0138
1138.00,0.0138
1137.00,0.0138
1136.00,0.0139
1135.00,0.0140
1134.00,0.0141
1133.00,0.0140
1132.00,0.0139
1131.00,0.0138
1130.00,0.0137
1129.00,0.0137
1128.00,0.0137
1127.00,0.0138
1126.00,0.0140
1125.00,0.0141
1124.00,0.0140
1123.00,0.0138
1122.00,0.0136
1121.00,0.0134
1120.00,0.0134
1119.00,0.0136
1118.00,0.0138
1117.00,0.0138
1116.00,0.0138
1115.00,0.0136
1114.00,0.0135
1113.00,0.0133
1112.00,0.0132
1111.00,0.0132
1110.00,0.0133
1109.00,0.0134
1108.00,0.0134
1107.00,0.0134
1106.00,0.0133
1105.00,0.0132
1104.00,0.0132
1103.00,0.0133
1102.00,0.0134
1101.00,0.0134
1100.00,0.0134
1099.00,0.0133
1098.00,0.0133
1097.00,0.0132
1096.00,0.0131
1095.00,0.0131
1094.00,0.0132
1093.00,0.0134
1092.00,0.0135
1091.00,0.0134
1090.00,0.0133
1089.00,0.0132
1088.00,0.0133
1087.00,0.0135
1086.00,0.0136
1085.00,0.0135
1084.00,0.0135
1083.00,0.0134
1082.00,0.0134
1081.00,0.0134
1080.00,0.0133
1079.00,0.0133
1078.00,0.0135
1077.00,0.0136
1076.00,0.0137
1075.00,0.0137
1074.00,0.0138
1073.00,0.0138
1072.00,0.0139
1071.00,0.0139
1070.00,0.0140
1069.00,0.0140
1068.00,0.0140
1067.00,0.0139
1066.00,0.0138
1065.00,0.0136
1064.00,0.0136
1063.00,0.0137
1062.00,0.0139
1061.00,0.0141
1060.00,0.0142
1059.00,0.0142
1058.00,0.0141
1057.00,0.0139
1056.00,0.0138
1055.00,0.0137
1054.00,0.0138
1053.00,0.0141
1052.00,0.0144
1051.00,0.0145
1050.00,0.0145
1049.00,0.0144
1048.00,0.0143
1047.00,0.0143
1046.00,0.0144
1045.00,0.0145
1044.00,0.0145
1043.00,0.0145
1042.00,0.0144
1041.00,0.0143
1040.00,0.0142
1039.00,0.0141
1038.00,0.0142
1037.00,0.0142
1036.00,0.0143
1035.00,0.0144
1034.00,0.0143
1033.00,0.0143
1032.00,0.0142
1031.00,0.0141
1030.00,0.0140
1029.00,0.0140
1028.00,0.0140
1027.00,0.0140
1026.00,0.0139
1025.00,0.0138
1024.00,0.0137
1023.00,0.0136
1022.00,0.0136
1021.00,0.0137
1020.00,0.0139
1019.00,0.0140
1018.00,0.0140
1017.00,0.0139
1016.00,0.0139
1015.00,0.0139
1014.00,0.0140
1013.00,0.0140
1012.00,0.0141
1011.00,0.0141
1010.00,0.0142
1009.00,0.0141
1008.00,0.0141
1007.00,0.0141
1006.00,0.0141
1005.00,0.0142
1004.00,0.0143
1003.00,0.0144
1002.00,0.0144
1001.00,0.0144
1000.00,0.0144
999.00,0.0144
998.00,0.0144
997.00,0.0143
996.00,0.0141
995.00,0.0141
994.00,0.0141
993.00,0.0142
992.00,0.0142
991.00,0.0141
990.00,0.0140
989.00,0.0139
988.00,0.0140
987.00,0.0141
986.00,0.0141
985.00,0.0142
984.00,0.0141
983.00,0.0141
982.00,0.0142
981.00,0.0142
980.00,0.0142
979.00,0.0142
978.00,0.0142
977.00,0.0142
976.00,0.0142
975.00,0.0141
974.00,0.0141
973.00,0.0140
972.00,0.0140
971.00,0.0141
970.00,0.0141
969.00,0.0142
968.00,0.0142
967.00,0.0141
966.00,0.0140
965.00,0.0139
964.00,0.0140
963.00,0.0141
962.00,0.0141
961.00,0.0141
960.00,0.0141
959.00,0.0140
958.00,0.0139
957.00,0.0139
956.00,0.0139
955.00,0.0140
954.00,0.0142
953.00,0.0143
952.00,0.0142
951.00,0.0141
950.00,0.0139
949.00,0.0138
948.00,0.0138
947.00,0.0140
946.00,0.0142
945.00,0.0144
944.00,0.0144
943.00,0.0144
942.00,0.0143
941.00,0.0142
940.00,0.0141
939.00,0.0142
938.00,0.0143
937.00,0.0144
936.00,0.0146
935.00,0.0147
934.00,0.0147
933.00,0.0146
932.00,0.0145
931.00,0.0144
930.00,0.0143
929.00,0.0143
928.00,0.0144
927.00,0.0145
926.00,0.0146
925.00,0.0147
924.00,0.0147
923.00,0.0146
922.00,0.0147
921.00,0.0148
920.00,0.0149
919.00,0.0150
918.00,0.0150
917.00,0.0150
916.00,0.0150
915.00,0.0149
914.00,0.0148
913.00,0.0148
912.00,0.0149
911.00,0.0150
910.00,0.0151
909.00,0.0151
908.00,0.0151
907.00,0.0151
906.00,0.0152
905.00,0.0152
904.00,0.0152
903.00,0.0152
902.00,0.0152
901.00,0.0152
900.00,0.0153
899.00,0.0154
898.00,0.0154
897.00,0.0153
896.00,0.0153
895.00,0.0153
894.00,0.0153
893.00,0.0152
892.00,0.0152
891.00,0.0152
890.00,0.0154
889.00,0.0155
888.00,0.0157
887.00,0.0157
886.00,0.0157
885.00,0.0157
884.00,0.0156
883.00,0.0155
882.00,0.0156
881.00,0.0157
880.00,0.0158
879.00,0.0158
878.00,0.0156
877.00,0.0154
876.00,0.0152
875.00,0.0152
874.00,0.0154
873.00,0.0156
872.00,0.0157
871.00,0.0157
870.00,0.0157
869.00,0.0157
868.00,0.0156
867.00,0.0155
866.00,0.0154
865.00,0.0154
864.00,0.0155
863.00,0.0157
862.00,0.0157
861.00,0.0157
860.00,0.0156
859.00,0.0155
858.00,0.0156
857.00,0.0157
856.00,0.0159
855.00,0.0160
854.00,0.0160
853.00,0.0159
852.00,0.0157
851.00,0.0155
850.00,0.0154
849.00,0.0155
848.00,0.0156
847.00,0.0158
846.00,0.0159
845.00,0.0159
844.00,0.0159
843.00,0.0159
842.00,0.0158
841.00,0.0158
840.00,0.0158
839.00,0.0160
838.00,0.0164
837.00,0.0167
836.00,0.0167
835.00,0.0165
834.00,0.0163
833.00,0.0163
832.00,0.0165
831.00,0.0167
830.00,0.0169
829.00,0.0168
828.00,0.0167
827.00,0.0166
826.00,0.0165
825.00,0.0165
824.00,0.0165
823.00,0.0164
822.00,0.0164
821.00,0.0165
820.00,0.0167
819.00,0.0168
818.00,0.0169
817.00,0.0170
816.00,0.0170
815.00,0.0170
814.00,0.0169
813.00,0.0168
812.00,0.0167
811.00,0.0166
810.00,0.0167
809.00,0.0168
808.00,0.0168
807.00,0.0169
806.00,0.0169
805.00,0.0168
804.00,0.0166
803.00,0.0164
802.00,0.0164
801.00,0.0166
800.00,0.0169
799.00,0.0171
798.00,0.0171
797.00,0.0171
796.00,0.0173
795.00,0.0175
794.00,0.0176
793.00,0.0176
792.00,0.0176
791.00,0.0177
790.00,0.0179
789.00,0.0180
788.00,0.0180
787.00,0.0179
786.00,0.0178
785.00,0.0177
784.00,0.0177
783.00,0.0178
782.00,0.0180
781.00,0.0182
780.00,0.0183
779.00,0.0183
778.00,0.0182
777.00,0.0182
776.00,0.0183
775.00,0.0185
774.00,0.0187
773.00,0.0188
772.00,0.0188
771.00,0.0187
770.00,0.0185
769.00,0.0183
768.00,0.0183
767.00,0.0182
766.00,0.0182
765.00,0.0182
764.00,0.0184
763.00,0.0186
762.00,0.0187
761.00,0.0188
760.00,0.0189
759.00,0.0190
758.00,0.0192
757.00,0.0193
756.00,0.0193
755.00,0.0193
754.00,0.0192
753.00,0.0192
752.00,0.0192
751.00,0.0193
750.00,0.0193
749.00,0.0193
748.00,0.0195
747.00,0.0197
746.00,0.0198
745.00,0.0199
744.00,0.0200
743.00,0.0200
742.00,0.0198
741.00,0.0195
740.00,0.0192
739.00,0.0191
738.00,0.0191
737.00,0.0191
736.00,0.0191
735.00,0.0191
734.00,0.0192
733.00,0.0193
732.00,0.0193
731.00,0.0194
730.00,0.0193
729.00,0.0192
728.00,0.0192
727.00,0.0193
726.00,0.0193
725.00,0.0194
724.00,0.0195
723.00,0.0197
722.00,0.0199
721.00,0.0201
720.00,0.0201
719.00,0.0202
718.00,0.0202
717.00,0.0202
716.00,0.0202
715.00,0.0201
714.00,0.0202
713.00,0.0204
712.00,0.0207
711.00,0.0208
710.00,0.0207
709.00,0.0205
708.00,0.0203
707.00,0.0203
706.00,0.0204
705.00,0.0207
704.00,0.0209
703.00,0.0209
702.00,0.0210
701.00,0.0210
700.00,0.0212
699.00,0.0213
698.00,0.0214
697.00,0.0214
696.00,0.0214
695.00,0.0214
694.00,0.0214
693.00,0.0213
692.00,0.0214
691.00,0.0217
690.00,0.0219
689.00,0.0217
688.00,0.0211
687.00,0.0206
686.00,0.0205
685.00,0.0207
684.00,0.0211
683.00,0.0214
682.00,0.0217
681.00,0.0220
680.00,0.0223
679.00,0.0225
678.00,0.0226
677.00,0.0227
676.00,0.0230
675.00,0.0234
674.00,0.0235
673.00,0.0234
672.00,0.0232
671.00,0.0232
670.00,0.0238
669.00,0.0250
668.00,0.0267
667.00,0.0275
666.00,0.0270
665.00,0.0262
664.00,0.0253
663.00,0.0243
662.00,0.0234
661.00,0.0229
660.00,0.0232
659.00,0.0238
658.00,0.0241
657.00,0.0238
656.00,0.0230
655.00,0.0225
654.00,0.0225
653.00,0.0228
652.00,0.0234
651.00,0.0241
650.00,0.0247
